"Time (s)","Linear Acceleration x (m/s^2)","Linear Acceleration y (m/s^2)","Linear Acceleration z (m/s^2)","Absolute acceleration (m/s^2)"
1.179624989E-3,1.676338255E-1,7.185877204E-2,2.317912298E-1,2.949439893E-1
1.124962501E-2,1.232043421E-1,7.977356315E-2,1.199725860E-1,1.895693876E-1
2.131962503E-2,1.774992478E-1,1.629086906E-1,2.613705397E-4,2.409259072E-1
3.138962499E-2,1.457336640E-1,1.911121505E-1,-2.856505179E-1,3.733073443E-1
4.145962500E-2,1.452044910E-1,2.185350072E-1,-4.932600758E-1,5.587015268E-1
5.152962502E-2,1.880891401E-1,2.249593431E-1,-6.855176228E-1,7.455995184E-1
6.159962498E-2,2.722089386E-1,2.679948503E-1,-6.872156543E-1,7.862469723E-1
7.166962500E-2,4.146383411E-1,2.415683591E-1,-5.489359476E-1,7.291165206E-1
8.173962502E-2,4.607255101E-1,2.839665198E-1,-4.269180787E-1,6.893214243E-1
9.180962498E-2,5.645100796E-1,1.857707191E-1,-6.179137965E-1,8.573213225E-1
1.018796250E-1,6.202510017E-1,1.756673151E-1,-6.056160787E-1,8.845005063E-1
1.119496250E-1,5.540552580E-1,2.414303648E-1,-4.057366131E-1,7.279340967E-1
1.220196250E-1,4.425102639E-1,2.240834302E-1,-2.881251327E-1,5.736242755E-1
1.320896250E-1,3.407944393E-1,1.546986151E-1,-2.115002221E-1,4.298893524E-1
1.421596250E-1,2.236501515E-1,1.620982665E-1,-6.272549428E-2,2.832485232E-1
1.522296250E-1,8.240071714E-2,9.663342476E-2,9.833035983E-2,1.606136876E-1
1.622996250E-1,-4.711978734E-2,2.429401159E-2,3.706908144E-2,6.468840821E-2
1.723696250E-1,-9.453485906E-2,-2.261410654E-2,-4.193003627E-1,4.304195994E-1
1.824396250E-1,8.501793087E-2,2.005010247E-2,-3.943455791E-1,4.039040616E-1
1.925096250E-1,2.523208040E-1,1.108608699E-1,-2.627474859E-1,3.807783633E-1
2.025796250E-1,3.802339089E-1,2.093010843E-2,-4.085255887E-1,5.584881839E-1
2.126496250E-1,4.656488657E-1,-1.702826142E-2,-4.629246845E-1,6.568242469E-1
2.227196250E-1,5.038721144E-1,-1.303753674E-2,-3.310354729E-1,6.030270055E-1
2.327896250E-1,5.098637563E-1,-3.705789864E-2,-9.469916582E-2,5.199060202E-1
2.428596250E-1,4.695811182E-1,-6.710381627E-2,8.397807665E-3,4.744258340E-1
2.529296250E-1,3.298940599E-1,-2.926005185E-2,-3.121828437E-3,3.312038454E-1
2.629996250E-1,2.271818697E-1,-8.936650515E-2,-1.124657113E-2,2.443858825E-1
2.730696250E-1,7.254581988E-2,-1.578555268E-1,9.292395115E-3,1.739758947E-1
2.831396250E-1,-1.642091113E-1,-2.458836043E-1,-1.698493721E-1,3.409870794E-1
2.932096250E-1,-3.181967050E-1,-2.314971149E-1,-2.394610226E-1,4.606317820E-1
3.032796250E-1,-3.424468625E-1,-2.952370280E-1,-3.107058370E-1,5.486099466E-1
3.133496250E-1,-3.460645348E-1,-1.173126876E-1,-2.328852804E-1,4.333110693E-1
3.234196250E-1,-2.994563788E-1,5.578419149E-2,-3.104293003E-1,4.349164854E-1
3.334896250E-1,-1.955846858E-1,-7.457714260E-2,-4.355140704E-1,4.832055722E-1
3.435596250E-1,-2.028071666E-1,-2.340599495E-1,-2.213282222E-1,3.806586249E-1
3.536296250E-1,-2.962491810E-1,-2.864931017E-1,-2.479340035E-2,4.128638847E-1
3.636996250E-1,-4.288675404E-1,-2.371069336E-1,-1.541969240E-2,4.902905588E-1
3.737696250E-1,-4.225689197E-1,-2.898961812E-1,-2.264279444E-2,5.129492995E-1
3.838396250E-1,-4.454742175E-1,-2.673849857E-1,1.234229914E-1,5.340180183E-1
3.939096250E-1,-5.407078189E-1,-2.299891180E-1,1.239621047E-1,6.005218923E-1
4.039796250E-1,-5.928252214E-1,-3.512118387E-1,1.136581413E-1,6.983621352E-1
4.140496250E-1,-6.000553036E-1,-4.715615702E-1,1.365570072E-1,7.752963937E-1
4.241196250E-1,-6.342790568E-1,-3.139171278E-1,1.880137110E-1,7.322588617E-1
4.341896250E-1,-5.282368773E-1,-3.606276101E-1,6.924331248E-2,6.433359216E-1
4.442596250E-1,-4.065229905E-1,-2.562232357E-1,-1.727630031E-1,5.106450269E-1
4.543296250E-1,-2.569646627E-1,-1.169203395E-1,-3.825868650E-1,4.754723051E-1
4.643996250E-1,-2.471039182E-1,5.955973864E-2,-3.903945790E-1,4.658493707E-1
4.744696250E-1,-4.486434084E-1,5.735060209E-1,-4.238378020E-1,8.425132321E-1
4.845396250E-1,-2.086859572E-1,-1.728635752E-1,-9.420431596E-1,9.802433162E-1
4.946096250E-1,-8.177331090E-2,-4.562114596E-1,-1.087810153E0,1.182432535E0
5.046796250E-1,4.394124091E-2,-3.640739590E-1,-6.534783894E-1,7.493428359E-1
5.147506250E-1,4.757353127E-2,-4.569066936E-1,-2.439417440E-1,5.201293512E-1
5.248196250E-1,-9.931554258E-2,-6.195744789E-1,-4.357929826E-2,6.289954428E-1
5.348906250E-1,-1.486648732E-1,-6.873706055E-1,2.476594220E-1,7.455969307E-1
5.449606250E-1,-2.114528596E-1,-7.297126329E-1,4.527943468E-1,8.844295105E-1
5.550306250E-1,-2.422840583E-1,-7.184953344E-1,4.655026853E-1,8.897358375E-1
5.651006250E-1,-2.541679394E-1,-4.944124889E-1,6.733618462E-1,8.731902579E-1
5.751706250E-1,-3.399547791E-1,-2.428822285E-1,6.452729917E-1,7.687250891E-1
5.852406250E-1,-4.932541555E-1,3.214448333E-2,3.300881875E-1,5.943829921E-1
5.953106250E-1,-7.558590424E-1,6.507459855E-1,-8.036179304E-2,1.000625428E0
6.053806250E-1,-8.465686530E-1,8.409687746E-1,-3.506259477E-1,1.243722445E0
6.154506250E-1,-1.041089730E0,1.027266912E0,-3.845444763E-1,1.512289519E0
6.255206250E-1,-1.361814187E0,1.390335735E0,-5.119225609E-1,2.012370752E0
6.355906250E-1,-1.713313124E0,1.434786853E0,-7.588072085E-1,2.360051600E0
6.456606250E-1,-1.949175770E0,1.193559387E0,-9.103424799E-1,2.460201947E0
6.557306250E-1,-2.157611466E0,1.416433028E0,-8.400250340E-1,2.714260824E0
6.658006250E-1,-2.357486254E0,1.595250823E0,-7.841361773E-1,2.952530469E0
6.758706250E-1,-2.712018142E0,1.734177743E0,-8.911390543E-1,3.340141264E0
6.859406250E-1,-2.839453529E0,2.057545141E0,-8.859163213E-1,3.616743850E0
6.960106250E-1,-2.874377779E0,2.415521623E0,-5.734270469E-1,3.798106226E0
7.060806250E-1,-3.102168928E0,2.921867110E0,-5.801514546E-1,4.300852843E0
7.161506250E-1,-3.156232869E0,3.482233853E0,-8.104076441E-1,4.769121416E0
7.262241250E-1,-3.036382490E0,4.026041865E0,-1.311744479E0,5.210499525E0
7.362941250E-1,-3.009493484E0,4.448306730E0,-2.103280892E0,5.767865663E0
7.463641250E-1,-2.109412867E0,4.693768165E0,-2.783498014E0,5.850550694E0
7.564341250E-1,-1.063383994E0,5.331235124E0,-3.226757891E0,6.321773482E0
7.665041250E-1,-7.878234315E-1,5.821380900E0,-3.776062871E0,6.983394028E0
7.765741250E-1,-5.679880035E-1,5.246055810E0,-4.348850269E0,6.837851314E0
7.866441250E-1,-2.796664774E-1,4.372912146E0,-4.709915836E0,6.433030480E0
7.967141250E-1,1.854403514E-1,3.573945676E0,-4.328066926E0,5.616016305E0
8.067841250E-1,4.176268530E-1,2.545504643E0,-4.514685491E0,5.199652985E0
8.168541250E-1,1.403031210E0,1.042564983E0,-4.814334244E0,5.121840736E0
8.269241250E-1,2.784793757E0,-1.185224766E-1,-5.869171947E0,6.497407421E0
8.369941250E-1,4.872224017E0,-1.506936232E0,-7.400841901E0,8.987874305E0
8.470641250E-1,7.696146172E0,-2.634587558E0,-9.080485003E0,1.219126431E1
8.571341250E-1,1.120490709E1,-4.303651877E0,-1.075181453E1,1.611436868E1
8.672041250E-1,1.488156145E1,-6.528115729E0,-1.078831402E1,1.950550911E1
8.772741250E-1,1.842034080E1,-8.619302241E0,-9.695057774E0,2.252987953E1
8.873441250E-1,2.152625311E1,-1.010901959E1,-9.191213726E0,2.549608323E1
8.974141250E-1,2.424348229E1,-1.080976044E1,-9.036994582E0,2.804041058E1
9.074841250E-1,2.567611796E1,-1.039282941E1,-8.077353058E0,2.885338054E1
9.175541250E-1,2.717326010E1,-1.027897944E1,-8.794435705E0,3.035433383E1
9.276241250E-1,2.866798150E1,-1.018327104E1,-9.410721710E0,3.184515435E1
9.376941250E-1,2.947913064E1,-9.830792699E0,-9.919894910E0,3.262005432E1
9.477641250E-1,2.960292556E1,-1.002068921E1,-9.941906168E0,3.279617222E1
9.578341250E-1,2.906765974E1,-1.071077760E1,-8.886897726E0,3.222772953E1
9.679041250E-1,2.792841631E1,-1.166440936E1,-7.231960280E0,3.111842112E1
9.779741250E-1,2.659286782E1,-1.274004912E1,-5.235496323E0,2.994828696E1
9.880441250E-1,2.514296649E1,-1.318006379E1,-2.888108211E0,2.853461082E1
9.981141250E-1,2.352365263E1,-1.302936584E1,-4.064039996E-1,2.689408432E1
1.008184125E0,2.234998547E1,-1.279794825E1,2.242723829E0,2.585225599E1
1.018254125E0,2.148220019E1,-1.242845567E1,4.340522665E0,2.519507040E1
1.028324125E0,2.047800873E1,-1.234056618E1,5.705818284E0,2.458037383E1
1.038394125E0,1.931598221E1,-1.261250731E1,6.230479589E0,2.389563528E1
1.048464125E0,1.800310688E1,-1.329004641E1,5.884298694E0,2.313789450E1
1.058534125E0,1.631245464E1,-1.483559765E1,4.775448798E0,2.256094070E1
1.068604125E0,1.448390634E1,-1.689200376E1,4.123270829E0,2.263017225E1
1.078674125E0,1.283645567E1,-1.911980929E1,3.783419546E0,2.333786548E1
1.088744125E0,1.117966115E1,-2.107277581E1,3.363814287E0,2.409070257E1
1.098814125E0,9.576713052E0,-2.303157902E1,2.593477831E0,2.507774297E1
1.108884125E0,8.312074912E0,-2.473410579E1,2.265100247E0,2.619154935E1
1.118954125E0,7.425921194E0,-2.581250777E1,2.257368766E0,2.695413840E1
1.129024125E0,7.692508035E0,-2.682895266E1,2.648398681E0,2.803535975E1
1.139094125E0,8.571791275E0,-2.772036068E1,3.320079745E0,2.920474159E1
1.149164125E0,9.812992605E0,-2.733641847E1,3.307151844E0,2.923203469E1
1.159234125E0,1.200652176E1,-2.713396915E1,3.037563043E0,2.982676040E1
1.169304125E0,1.461527691E1,-2.675021639E1,2.871057145E0,3.061737032E1
1.179374125E0,1.765405266E1,-2.635582637E1,2.012858380E0,3.178595221E1
1.189444125E0,2.035779232E1,-2.588749714E1,9.643719220E-1,3.294741613E1
1.199514125E0,2.247447970E1,-2.496522283E1,-2.785139912E-1,3.359229315E1
1.209584125E0,2.498472914E1,-2.538923017E1,-2.513568320E0,3.570949068E1
1.219654125E0,2.755286836E1,-2.560359845E1,-3.985905700E0,3.782317084E1
1.229724125E0,2.995477825E1,-2.448110144E1,-4.841430241E0,3.898785086E1
1.239794125E0,3.228434405E1,-2.374617894E1,-6.355358573E0,4.057770900E1
1.249864125E0,3.408140392E1,-2.387457444E1,-8.470247358E0,4.246507374E1
1.259934125E0,3.544907000E1,-2.444783546E1,-9.446928838E0,4.408602598E1
1.270004125E0,3.514713382E1,-2.424321566E1,-9.002099569E0,4.363590629E1
1.280075125E0,3.325099638E1,-2.410850517E1,-8.111297314E0,4.186456647E1
1.290145125E0,3.085547399E1,-2.436600485E1,-6.611875924E0,3.986827524E1
1.300214125E0,2.873100981E1,-2.434705286E1,-4.790677578E0,3.796314659E1
1.310285125E0,2.608624868E1,-2.374745363E1,-2.752862697E0,3.538378410E1
1.320355125E0,2.301842746E1,-2.296717779E1,-4.537556291E-1,3.251991932E1
1.330425125E0,2.003061721E1,-2.244045125E1,1.138715720E0,3.010143105E1
1.340495125E0,1.644344162E1,-2.264377063E1,2.755936579E0,2.811978498E1
1.350565125E0,1.239600831E1,-2.374478497E1,4.170398218E0,2.710844991E1
1.360635125E0,8.303485352E0,-2.725423702E1,6.193849121E0,2.915656138E1
1.370705125E0,3.259219878E0,-3.206653760E1,1.063369142E1,3.394054716E1
1.380775125E0,-2.636040006E0,-3.510567706E1,1.807318927E1,3.957268551E1
1.390845125E0,-9.092878761E0,-3.878708637E1,2.743078084E1,4.836906295E1
1.400915125E0,-1.523619274E1,-3.998755950E1,3.629597837E1,5.611189295E1
1.410985125E0,-1.962481343E1,-4.148782874E1,3.973005280E1,6.070296806E1
1.421055125E0,-2.260323773E1,-4.180843391E1,3.854231491E1,6.119118842E1
1.431125125E0,-2.408942921E1,-4.085791989E1,3.663811533E1,5.993347740E1
1.441195125E0,-2.485148747E1,-3.940121943E1,3.503568822E1,5.828852350E1
1.451265125E0,-2.574787966E1,-3.765890353E1,3.386925524E1,5.681789131E1
1.461335125E0,-2.602772273E1,-3.557254682E1,3.227431023E1,5.463039024E1
1.471405125E0,-2.404630950E1,-3.355659292E1,2.891600636E1,5.040243400E1
1.481475125E0,-1.962324871E1,-3.203738339E1,2.352059102E1,4.432475636E1
1.491545125E0,-1.314267903E1,-3.113735189E1,1.730547324E1,3.797030549E1
1.501615125E0,-5.402855914E0,-3.047936003E1,1.072798245E1,3.276082794E1
1.511685125E0,3.375736760E0,-3.040040859E1,5.986552463E0,3.116759938E1
1.521755125E0,1.251185802E1,-3.150080078E1,4.182046748E0,3.415166988E1
1.531825125E0,2.183925925E1,-3.374473060E1,5.207967632E0,4.053125972E1
1.541895125E0,3.023681987E1,-3.550471912E1,7.531640607E0,4.723955933E1
1.551965125E0,3.577497509E1,-3.621338295E1,1.182059083E1,5.225882045E1
1.562035125E0,3.746818373E1,-3.642692560E1,1.651686394E1,5.480504078E1
1.572105125E0,3.647691228E1,-3.721599332E1,1.878369613E1,5.539334372E1
1.582175125E0,3.401583324E1,-3.812147676E1,1.925396898E1,5.459889397E1
1.592245125E0,3.067741224E1,-3.792514831E1,1.836879993E1,5.212325112E1
1.602315125E0,2.735700301E1,-3.808491295E1,1.583607730E1,4.949391430E1
1.612385125E0,2.244005831E1,-3.872851832E1,1.241543860E1,4.644994579E1
1.622455125E0,1.513210645E1,-4.140201500E1,1.262086415E1,4.585186696E1
1.632525125E0,7.167367843E0,-4.488147786E1,1.775924290E1,4.879660772E1
1.642595125E0,2.852723200E0,-4.780445887E1,2.395149573E1,5.354510683E1
1.652665125E0,1.852603741E0,-4.855157398E1,2.618631559E1,5.519429863E1
1.662735125E0,2.529189157E0,-4.695702424E1,2.540488901E1,5.344873534E1
1.672805125E0,3.814887798E0,-4.453980868E1,2.156889569E1,4.963431461E1
1.682875125E0,5.546868743E0,-4.185395332E1,1.624783940E1,4.523840676E1
1.692945125E0,8.588368131E0,-4.026642491E1,1.103811058E1,4.262610618E1
1.703015125E0,1.202968726E1,-3.927665970E1,7.170439385E0,4.169873588E1
1.713085125E0,1.427807383E1,-3.709743517E1,4.974008839E0,4.006025278E1
1.723155125E0,1.459836442E1,-3.525826833E1,3.425849737E0,3.831441212E1
1.733221500E0,1.423607562E1,-3.426981056E1,2.063033338E0,3.716640784E1
1.743291500E0,1.437109016E1,-3.287911581E1,1.072434899E0,3.589867136E1
1.753361500E0,1.699204377E1,-3.113577782E1,4.740640323E-1,3.547380651E1
1.763431500E0,2.179794750E1,-3.019951229E1,1.118401323E-1,3.724477904E1
1.773501500E0,2.872810491E1,-2.893117169E1,1.753281620E0,4.080919876E1
1.783571500E0,3.638817025E1,-2.563137740E1,6.178566839E0,4.493596700E1
1.793641500E0,4.338184948E1,-2.240454700E1,1.121776745E1,5.009777338E1
1.803711500E0,4.775388279E1,-2.010996861E1,1.616470719E1,5.427837431E1
1.813781500E0,4.963728966E1,-1.844689885E1,2.183958201E1,5.728102604E1
1.823851500E0,5.157555277E1,-1.670154006E1,2.779757433E1,6.092359332E1
1.833921500E0,5.594196808E1,-1.286238223E1,3.069195544E1,6.509178748E1
1.843991500E0,6.288260838E1,-8.183577670E0,2.730743733E1,6.904266445E1
1.854061500E0,6.980558074E1,-3.476179646E0,2.102972393E1,7.298734284E1
1.864131500E0,7.215626434E1,9.957983673E-2,1.479578864E1,7.365766600E1
1.874201500E0,7.184709164E1,1.369256523E0,1.018388851E1,7.257817183E1
1.884271500E0,7.107943643E1,-6.245346719E-1,8.974936913E0,7.164653389E1
1.894341500E0,6.586442173E1,-4.822049645E0,9.866693434E0,6.677369132E1
1.904411500E0,5.870767302E1,-9.937415507E0,1.102864979E1,6.055554652E1
1.914481500E0,5.222508488E1,-1.470080062E1,1.131495052E1,5.542202752E1
1.924551500E0,4.637071691E1,-1.774541891E1,1.068900140E1,5.078777442E1
1.934621500E0,4.122063905E1,-1.904922521E1,9.260544162E0,4.634405834E1
1.944691500E0,3.613764045E1,-1.924608459E1,7.609961722E0,4.164435552E1
1.954761500E0,3.090967768E1,-1.886711251E1,6.349739399E0,3.676540901E1
1.964831500E0,2.638802114E1,-1.887936126E1,5.783906679E0,3.295772319E1
1.974901500E0,2.285264253E1,-1.982358134E1,5.127325172E0,3.068398786E1
1.984971500E0,1.997871966E1,-2.150267246E1,4.239376359E0,2.965613721E1
1.995041500E0,1.713999236E1,-2.346263342E1,2.705203212E0,2.918206006E1
2.005111500E0,1.486960038E1,-2.568146465E1,1.634946985E0,2.972062741E1
2.015181500E0,1.271320104E1,-2.772076063E1,7.867832118E-1,3.050713160E1
2.025251500E0,1.066175689E1,-2.949520113E1,1.050744653E-2,3.136303653E1
2.035321500E0,8.871316066E0,-3.089489124E1,-8.601026914E-1,3.215484925E1
2.045391500E0,7.528625783E0,-3.197323475E1,-1.469744432E0,3.288051240E1
2.055461500E0,6.931353754E0,-3.250172482E1,-1.392350686E0,3.326175614E1
2.065531500E0,6.678731818E0,-3.253380966E1,-1.021413777E0,3.322796286E1
2.075601500E0,6.765559462E0,-3.204904274E1,-3.831423140E-1,3.275760573E1
2.085671500E0,7.327760476E0,-3.131939442E1,-7.677949637E-2,3.216529862E1
2.095742500E0,8.627120553E0,-3.062838919E1,3.747533137E-1,3.182241149E1
2.105812500E0,1.016801800E1,-2.906708671E1,9.885185838E-1,3.081008421E1
2.115882500E0,1.206100261E1,-2.776767167E1,8.111292636E-1,3.028480320E1
2.125952500E0,1.516580746E1,-2.701844688E1,1.918895086E0,3.104320129E1
2.136022500E0,1.874971212E1,-2.639229662E1,2.787593696E0,3.249424109E1
2.146092500E0,2.268603664E1,-2.586791365E1,3.187127802E0,3.455376967E1
2.156162500E0,2.628460728E1,-2.535383112E1,3.307965192E0,3.666933278E1
2.166232500E0,2.933965350E1,-2.487922432E1,4.106423247E0,3.868660986E1
2.176302500E0,3.172252720E1,-2.450633569E1,4.494728067E0,4.033710204E1
2.186372500E0,3.353165806E1,-2.397832042E1,5.168187854E0,4.154566293E1
2.196442500E0,3.498013734E1,-2.334529851E1,5.194317892E0,4.237444878E1
2.206512500E0,3.529913569E1,-2.248002754E1,4.739740144E0,4.211704828E1
2.216582500E0,3.443679301E1,-2.151878037E1,4.533162693E0,4.085951768E1
2.226652500E0,3.288118572E1,-2.064268503E1,4.178581688E0,3.904809041E1
2.236722500E0,3.043179176E1,-2.006387617E1,4.216552337E0,3.669376501E1
2.246792500E0,2.674608592E1,-2.023683681E1,4.869843031E0,3.389097294E1
2.256862500E0,2.132067904E1,-2.074863892E1,5.546923707E0,3.026294326E1
2.266932500E0,1.435612129E1,-2.156816128E1,6.263161431E0,2.665541203E1
2.277002500E0,6.695533792E0,-2.323968611E1,7.132251220E0,2.521472170E1
2.287072500E0,4.138934058E-1,-2.658038050E1,8.206077172E0,2.782135219E1
2.297142500E0,-6.009209254E0,-3.166644772E1,1.115280021E1,3.410658968E1
2.307212500E0,-1.373896054E1,-3.639773396E1,1.613834678E1,4.211888307E1
2.317282500E0,-2.165766110E1,-3.994179686E1,2.070183781E1,4.992962556E1
2.327352500E0,-2.765103843E1,-4.227612697E1,2.409692768E1,5.596885528E1
2.337422500E0,-3.103140268E1,-4.435264164E1,2.541010941E1,5.979781295E1
2.347492500E0,-3.405423775E1,-4.459129692E1,2.684058160E1,6.219720002E1
2.357562500E0,-3.616803194E1,-4.340691766E1,2.820800443E1,6.315044378E1
2.367632500E0,-3.665367828E1,-4.131377350E1,2.646352507E1,6.124245400E1
2.377702500E0,-3.453290486E1,-3.885304764E1,2.280093209E1,5.676234080E1
2.387772500E0,-3.007272127E1,-3.647723972E1,1.850732047E1,5.076887327E1
2.397842500E0,-2.415474963E1,-3.416068515E1,1.437012070E1,4.423691567E1
2.407912500E0,-1.723250817E1,-3.212749600E1,1.046885140E1,3.793062333E1
2.417982500E0,-9.974748809E0,-3.061567032E1,7.085950627E0,3.297007097E1
2.428052500E0,-3.071834743E0,-3.014950222E1,5.096380538E0,3.073112018E1
2.438122500E0,3.597154444E0,-3.067507803E1,5.416550678E0,3.135664130E1
2.448192500E0,1.017303257E1,-3.265674620E1,7.874023150E0,3.509920091E1
2.458262500E0,1.672541892E1,-3.549059225E1,1.135891573E1,4.084540051E1
2.468332500E0,2.346788656E1,-3.870260346E1,1.497301424E1,4.767414781E1
2.478402500E0,2.799216733E1,-4.134613901E1,1.884223495E1,5.336754127E1
2.488472500E0,2.979225138E1,-4.307771474E1,2.170283435E1,5.669462734E1
2.498542500E0,2.914676087E1,-4.389202606E1,2.435196452E1,5.804361978E1
2.508612500E0,2.725964219E1,-4.313867548E1,2.609945169E1,5.731679329E1
2.518682500E0,2.474783973E1,-4.117656976E1,2.394040006E1,5.367595573E1
2.528752500E0,2.167865260E1,-3.907885541E1,1.967461299E1,4.882838637E1
2.538822500E0,1.729173228E1,-3.673893770E1,1.473441042E1,4.319555995E1
2.548892500E0,1.223886906E1,-3.487505585E1,1.019716988E1,3.834112297E1
2.558962500E0,7.187570558E0,-3.492678968E1,7.717758651E0,3.648432001E1
2.569032500E0,3.013634482E0,-3.592203256E1,8.335771923E0,3.699945283E1
2.579102500E0,2.663149452E-1,-3.751205422E1,9.121274010E0,3.860599403E1
2.589172500E0,-1.437263149E0,-3.763748401E1,1.052965893E1,3.910907369E1
2.599242500E0,-2.128535017E0,-3.674778337E1,1.075171864E1,3.834748620E1
2.609312500E0,-2.679978324E0,-3.619994838E1,8.094248003E0,3.719052833E1
2.619382500E0,-3.828968478E0,-3.552071476E1,5.379348938E0,3.612920663E1
2.629452500E0,-3.846269805E0,-3.537909988E1,3.316950900E0,3.574180553E1
2.639522500E0,-2.567457429E0,-3.541197292E1,1.845930313E0,3.555287784E1
2.649592500E0,-7.183421373E-1,-3.532420856E1,1.519027104E0,3.536415090E1
2.659662500E0,1.202265306E0,-3.538879924E1,1.635279692E0,3.544695605E1
2.669732500E0,3.097160203E0,-3.499418469E1,2.444669701E0,3.521593067E1
2.679802500E0,5.690718434E0,-3.432620345E1,3.091993019E0,3.493183277E1
2.689872500E0,7.927258540E0,-3.312961754E1,4.856301172E0,3.440925235E1
2.699942500E0,1.099664447E1,-3.111946175E1,8.124730707E0,3.399056248E1
2.710012500E0,1.638984488E1,-2.844797650E1,9.750030956E0,3.424875890E1
2.720082500E0,2.378306084E1,-2.628211871E1,9.381576848E0,3.666602966E1
2.730153292E0,3.262651375E1,-2.529970696E1,9.005420787E0,4.225709615E1
2.740223292E0,4.094971650E1,-2.478855038E1,1.037021472E1,4.897849390E1
2.750293292E0,4.749831737E1,-2.416540325E1,1.334660419E1,5.493804429E1
2.760363292E0,5.242912931E1,-2.133431241E1,1.761317945E1,5.928060878E1
2.770433292E0,5.786625868E1,-1.752550864E1,2.204405914E1,6.435516988E1
2.780503292E0,6.524360179E1,-1.414727395E1,2.405212631E1,7.096039540E1
2.790573292E0,7.136861632E1,-8.847039011E0,2.387922649E1,7.577576758E1
2.800643292E0,7.281906260E1,-3.413365347E0,2.353317189E1,7.660337539E1
2.810713292E0,7.253746070E1,-1.273384990E0,2.328310987E1,7.619322751E1
2.820783292E0,6.996498987E1,-2.796829666E0,2.263867186E1,7.358961562E1
2.830854292E0,6.498299841E1,-7.128341187E0,2.153409774E1,6.882819695E1
2.840924292E0,5.990708196E1,-1.323111466E1,2.064141034E1,6.473012193E1
2.850994292E0,5.409466425E1,-1.888594756E1,2.045792939E1,6.083944930E1
2.861064292E0,4.807895056E1,-2.341228188E1,2.071249377E1,5.734743087E1
2.871134292E0,4.168536172E1,-2.607254514E1,1.962462632E1,5.293933273E1
2.881204292E0,3.515078716E1,-2.710521488E1,1.722876946E1,4.761408414E1
2.891274292E0,2.866946435E1,-2.734058403E1,1.416860576E1,4.207368668E1
2.901344292E0,2.285103338E1,-2.787604865E1,1.126414055E1,3.776406595E1
2.911414292E0,1.791340825E1,-2.824156745E1,8.963755867E0,3.462405589E1
2.921484292E0,1.350352708E1,-2.867858835E1,6.601132250E0,3.237872172E1
2.931554292E0,9.526961433E0,-2.905620154E1,4.418192692E0,3.089573221E1
2.941624292E0,6.726194837E0,-2.927630009E1,3.574042740E0,3.025090454E1
2.951694292E0,4.430448164E0,-2.947192921E1,2.705334190E0,2.992561304E1
2.961764292E0,2.571840502E0,-2.960640582E1,2.521673731E0,2.982469560E1
2.971834292E0,1.400426275E0,-2.925967529E1,3.391568681E0,2.948885433E1
2.981904292E0,1.053892209E0,-2.873696929E1,3.831751753E0,2.901045353E1
2.991974292E0,1.855595176E0,-2.839547318E1,4.417309470E0,2.879685319E1
3.002044292E0,3.206840521E0,-2.787027394E1,5.575713058E0,2.860287698E1
3.012114292E0,4.830232238E0,-2.739032278E1,6.468626157E0,2.855528060E1
3.022184292E0,7.628139546E0,-2.655106256E1,7.279832604E0,2.856822359E1
3.032254292E0,1.120938372E1,-2.537061497E1,8.019511231E0,2.887266783E1
3.042324292E0,1.497321421E1,-2.433532100E1,8.407253550E0,2.978400417E1
3.052394292E0,1.870166321E1,-2.328791160E1,9.247759809E0,3.126659711E1
3.062464292E0,2.231461683E1,-2.273131280E1,1.005403471E1,3.340266935E1
3.072534292E0,2.568279782E1,-2.258675560E1,9.934925762E0,3.561559184E1
3.082604292E0,2.929740620E1,-2.188216144E1,8.480779948E0,3.753785593E1
3.092674292E0,3.351373283E1,-2.072311466E1,6.075227242E0,3.986886198E1
3.102744292E0,3.817355674E1,-1.914175038E1,2.907015767E0,4.280277775E1
3.112814292E0,4.071308670E1,-1.806472250E1,-1.078590263E0,4.455393344E1
3.122884292E0,4.098368649E1,-1.803662312E1,-3.844238482E0,4.494174564E1
3.132954292E0,3.861534663E1,-1.785271298E1,-4.638706105E0,4.279464862E1
3.143024292E0,3.479891575E1,-1.713891647E1,-3.762202631E0,3.897256938E1
3.153094292E0,3.114378616E1,-1.657007594E1,-2.269204115E0,3.535041896E1
3.163164292E0,2.826393890E1,-1.674904284E1,-3.795253725E-1,3.285612147E1
3.173234292E0,2.532343964E1,-1.724678357E1,1.962292829E0,3.070144511E1
3.183304292E0,2.145749454E1,-1.772665988E1,4.570453895E0,2.820545321E1
3.193374292E0,1.592902698E1,-1.851556154E1,8.359585294E0,2.581554930E1
3.203444292E0,8.478364463E0,-2.095542921E1,1.380212100E1,2.648605711E1
3.213514292E0,5.843514365E-1,-2.420088650E1,2.082691677E1,3.193407014E1
3.223584292E0,-5.596450208E0,-2.741691592E1,2.780881268E1,3.945044482E1
3.233654292E0,-8.404855607E0,-3.257524770E1,3.190281089E1,4.636353851E1
3.243724292E0,-9.997272284E0,-3.505717323E1,3.244502553E1,4.880195211E1
3.253794292E0,-1.160181375E1,-3.417150249E1,3.296297190E1,4.887587525E1
3.263864292E0,-1.093514579E1,-3.423261292E1,3.248573619E1,4.844349550E1
3.273934292E0,-1.066682642E1,-3.425319278E1,3.240026861E1,4.834087098E1
3.284004292E0,-1.096832407E1,-3.382322362E1,3.252716020E1,4.819056692E1
3.294074292E0,-1.293214653E1,-3.361934290E1,3.219395545E1,4.831098631E1
3.304144292E0,-1.675269384E1,-3.288961507E1,3.114205071E1,4.829292756E1
3.314214292E0,-1.948931941E1,-3.145981180E1,2.834772716E1,4.661702441E1
3.324284292E0,-2.030691218E1,-2.949194774E1,2.310302966E1,4.261332706E1
3.334354292E0,-1.788685137E1,-2.734140264E1,1.778186929E1,3.719793845E1
3.344424292E0,-1.306962860E1,-2.543324801E1,1.386212746E1,3.177772606E1
3.354494292E0,-6.636841196E0,-2.472664006E1,1.188236783E1,2.822490133E1
3.364564292E0,-1.453828311E-1,-2.492135468E1,1.242498009E1,2.784735509E1
3.374634292E0,5.320183302E0,-2.597648475E1,1.478517828E1,3.035924253E1
3.384704292E0,9.245779942E0,-2.708372052E1,1.827980414E1,3.395826267E1
3.394774292E0,1.220254265E1,-2.800274611E1,2.172822764E1,3.748562009E1
3.404844292E0,1.472523380E1,-2.950258032E1,2.280003396E1,4.008835622E1
3.414914292E0,1.800424124E1,-3.140957720E1,2.163298585E1,4.217464071E1
3.424984292E0,2.210341540E1,-3.234563690E1,1.988853455E1,4.393580550E1
3.435054292E0,2.660104690E1,-3.260043049E1,1.664747437E1,4.524977533E1
3.445124292E0,2.995900462E1,-3.250215517E1,1.277228716E1,4.601155689E1
3.455194292E0,3.095188990E1,-3.228227647E1,1.049882539E1,4.593898342E1
3.465264292E0,3.010635211E1,-3.217259908E1,1.011208938E1,4.520755380E1
3.475334292E0,2.740266041E1,-3.225225453E1,1.052036537E1,4.360953803E1
3.485404292E0,2.270616276E1,-3.230877605E1,1.112458038E1,4.102661485E1
3.495474292E0,1.714180967E1,-3.272016510E1,1.222096840E1,3.890762022E1
3.505544292E0,1.170119303E1,-3.349015920E1,1.291635553E1,3.775368752E1
3.515614292E0,7.110454554E0,-3.453965723E1,1.294120152E1,3.756356189E1
3.525684292E0,3.833724604E0,-3.531729481E1,1.284093347E1,3.777430779E1
3.535754292E0,1.824780934E0,-3.560278628E1,1.184416213E1,3.756557457E1
3.545824292E0,8.436152244E-1,-3.581936247E1,1.052368541E1,3.734282219E1
3.555894292E0,3.725173384E-1,-3.567487543E1,8.961397101E0,3.678508046E1
3.565964292E0,8.793452203E-2,-3.530869238E1,7.329979495E0,3.606161518E1
3.576034292E0,1.917600220E-1,-3.551667317E1,5.390481452E0,3.592392149E1
3.586104292E0,7.177843130E-1,-3.602303035E1,4.290213806E0,3.628470565E1
3.596174292E0,1.477853351E0,-3.638124013E1,4.732369729E0,3.671748912E1
3.606245292E0,2.203009833E0,-3.614537047E1,5.599036431E0,3.664273827E1
3.616315292E0,3.743054169E0,-3.559155729E1,6.950826151E0,3.645659596E1
3.626385292E0,6.647209479E0,-3.485489933E1,7.239941729E0,3.621417067E1
3.636455292E0,1.111922316E1,-3.379417231E1,6.897025920E0,3.623882135E1
3.646525292E0,1.738037607E1,-3.138133982E1,6.626133775E0,3.647974247E1
3.656595292E0,2.586076601E1,-2.775153102E1,5.543057528E0,3.833604282E1
3.666665292E0,3.419969543E1,-2.429083539E1,5.336794657E0,4.228646626E1
3.676735292E0,4.150910325E1,-2.215794419E1,8.040458297E0,4.773498835E1
3.686805292E0,4.628288238E1,-2.217604951E1,1.220775603E1,5.275330966E1
3.696875292E0,4.823530043E1,-2.240088665E1,1.810794395E1,5.618132754E1
3.706945292E0,5.048181004E1,-2.268054962E1,2.399681867E1,6.032137085E1
3.717015292E0,5.397448760E1,-2.184053628E1,2.919458408E1,6.513507562E1
3.727085292E0,5.901525527E1,-2.000420183E1,3.343503633E1,7.071683038E1
3.737154875E0,6.438053405E1,-1.839895519E1,3.444887102E1,7.530006263E1
3.747224875E0,6.839754782E1,-1.578424758E1,3.258320226E1,7.738883698E1
3.757294875E0,7.032751256E1,-1.326667977E1,2.887962030E1,7.717510145E1
3.767364875E0,6.904052636E1,-1.241690742E1,2.519328062E1,7.453506060E1
3.777434875E0,6.417293919E1,-1.344697398E1,2.240808808E1,6.929004001E1
3.787504875E0,5.652932791E1,-1.592026317E1,2.062404645E1,6.224444542E1
3.797574875E0,4.746880998E1,-1.814650399E1,1.958432965E1,5.446218409E1
3.807644875E0,3.869237317E1,-1.977282984E1,1.785547989E1,4.697747017E1
3.817714875E0,3.079108679E1,-2.053603416E1,1.493168261E1,3.990958369E1
3.827784875E0,2.437056802E1,-2.102781540E1,1.114225417E1,3.406234628E1
3.837854875E0,1.942109410E1,-2.162678078E1,8.149126461E0,3.018782544E1
3.847924875E0,1.518250126E1,-2.269652655E1,5.661109888E0,2.788707276E1
3.857994875E0,1.192354276E1,-2.454438469E1,3.976045833E0,2.757547157E1
3.868064875E0,9.225280189E0,-2.686965395E1,2.633250592E0,2.853100256E1
3.878134875E0,6.833880669E0,-2.868782227E1,1.538697430E0,2.953067323E1
3.888204875E0,4.839180817E0,-3.038603613E1,9.262147468E-1,3.078289682E1
3.898274875E0,3.137113643E0,-3.187320293E1,8.986834243E-1,3.203982177E1
3.908344875E0,1.669875328E0,-3.269432742E1,9.411862502E-1,3.275047115E1
3.918414875E0,6.041331518E-1,-3.278161933E1,9.700799739E-1,3.280153347E1
3.928484875E0,1.495378625E-1,-3.288278786E1,9.454390763E-1,3.289671646E1
3.938554875E0,4.570183754E-2,-3.267942872E1,1.297944465E0,3.270522603E1
3.948624875E0,-2.198085308E-2,-3.211309314E1,1.866930004E0,3.216732288E1
3.958694875E0,4.747716916E-1,-3.124229537E1,2.858528316E0,3.137638623E1
3.968764875E0,2.187293687E0,-3.011126143E1,3.973820382E0,3.045100273E1
3.978834875E0,4.514416519E0,-2.866853816E1,4.482323492E0,2.936590302E1
3.988904875E0,7.289937177E0,-2.779066994E1,4.551760347E0,2.908922553E1
3.998974875E0,1.010069316E1,-2.691999848E1,5.578214496E0,2.928868036E1
4.009044875E0,1.315249768E1,-2.617096080E1,6.308749248E0,2.996177067E1
4.019114875E0,1.729834081E1,-2.598554793E1,6.618244711E0,3.191053837E1
4.029184875E0,2.116550797E1,-2.594549450E1,6.400059952E0,3.408970783E1
4.039254875E0,2.447953205E1,-2.630125314E1,6.651644007E0,3.654104232E1
4.049324875E0,2.819437340E1,-2.635810445E1,6.330947617E0,3.911206028E1
4.059394875E0,3.026654711E1,-2.624304294E1,5.685205679E0,4.046087913E1
4.069464875E0,3.047179841E1,-2.665511260E1,6.935525157E0,4.107465198E1
4.079534875E0,2.931801179E1,-2.715589153E1,8.947529844E0,4.095175882E1
4.089604875E0,2.724815592E1,-2.630899953E1,1.037116664E1,3.927068314E1
4.099674875E0,2.464859143E1,-2.506931964E1,9.767802984E0,3.648881777E1
4.109744875E0,2.192163716E1,-2.358475369E1,8.348082651E0,3.326393342E1
4.119814875E0,1.870917805E1,-2.164272029E1,6.423074008E0,2.932058261E1
4.129884875E0,1.508425985E1,-2.032210091E1,4.197477551E0,2.565426862E1
4.139955875E0,1.022183109E1,-1.983593066E1,2.146347975E0,2.241777834E1
4.150025875E0,4.166810074E0,-1.930917254E1,1.045893803E0,1.978131301E1
4.160095875E0,-1.079229949E0,-1.927276427E1,1.315667961E0,1.934774307E1
4.170165875E0,-5.276991674E0,-2.126936388E1,2.648861196E0,2.207371619E1
4.180235875E0,-9.468308013E0,-2.421420178E1,5.648675784E0,2.660608882E1
4.190305875E0,-1.462540896E1,-2.829966539E1,7.746330485E0,3.278382657E1
4.200375875E0,-2.071377548E1,-3.285718407E1,9.992503295E0,4.010617361E1
4.210445875E0,-2.673201518E1,-3.583042540E1,1.275002447E1,4.648637590E1
4.220515875E0,-3.088950947E1,-3.759064781E1,1.530727617E1,5.100520858E1
4.230585875E0,-3.343158179E1,-3.852663267E1,1.671032258E1,5.367687553E1
4.240655875E0,-3.544075526E1,-3.733447194E1,1.866207990E1,5.475566778E1
4.250725875E0,-3.615906933E1,-3.598949540E1,2.005964981E1,5.481889842E1
4.260795875E0,-3.571395822E1,-3.458127537E1,2.009144463E1,5.361919027E1
4.270865875E0,-3.344130220E1,-3.318034331E1,1.853162384E1,5.062288966E1
4.280935875E0,-2.885793649E1,-3.185487775E1,1.535835510E1,4.564419795E1
4.291005875E0,-2.247560471E1,-3.064594487E1,1.165539062E1,3.975141349E1
4.301075875E0,-1.511361639E1,-2.952132181E1,8.347258193E0,3.419951113E1
4.311145875E0,-7.438030778E0,-2.867551271E1,5.621740000E0,3.015316388E1
4.321215875E0,2.978747070E-2,-2.852342897E1,3.242859954E0,2.870719472E1
4.331285875E0,6.516329497E0,-2.977043659E1,2.472042564E0,3.057535673E1
4.341355875E0,1.287667867E1,-3.157897805E1,3.910141865E0,3.432681048E1
4.351425875E0,1.891140166E1,-3.376544143E1,6.131313150E0,3.918340400E1
4.361495875E0,2.322805716E1,-3.542641087E1,9.106219769E0,4.333008730E1
4.371565875E0,2.571447335E1,-3.614406537E1,1.167090211E1,4.586760902E1
4.381635875E0,2.663777443E1,-3.692425702E1,1.380995042E1,4.757821470E1
4.391705875E0,2.625365680E1,-3.668290735E1,1.564710932E1,4.774643669E1
4.401775875E0,2.502772255E1,-3.593778262E1,1.654859327E1,4.681631185E1
4.411845875E0,2.344526017E1,-3.527678998E1,1.572868968E1,4.518322492E1
4.421915875E0,2.189571060E1,-3.459428425E1,1.419846983E1,4.333339580E1
4.431985875E0,2.048665092E1,-3.302444484E1,1.249368604E1,4.082167334E1
4.442055875E0,1.920979443E1,-3.173595006E1,1.032463216E1,3.850694428E1
4.452125875E0,1.800909209E1,-3.066225626E1,8.463533585E0,3.655314976E1
4.462195875E0,1.603456338E1,-2.970542491E1,7.458592511E0,3.457094291E1
4.472265875E0,1.333061322E1,-2.877892657E1,7.563467002E0,3.260579544E1
4.482335875E0,1.028056287E1,-2.800815128E1,7.928210467E0,3.087074719E1
4.492405875E0,7.331823122E0,-2.723474241E1,8.278925292E0,2.939434347E1
4.502475875E0,4.963093257E0,-2.622428273E1,8.390430526E0,2.797757359E1
4.512545875E0,3.332947420E0,-2.520092877E1,7.932114068E0,2.662919043E1
4.522615875E0,2.575334213E0,-2.453699147E1,7.437099316E0,2.576832829E1
4.532685875E0,2.097376374E0,-2.343094385E1,6.775683916E0,2.448097241E1
4.542755875E0,2.184696938E0,-2.157906984E1,5.998702392E0,2.250363496E1
4.552825875E0,3.005974630E0,-1.975310368E1,4.844197143E0,2.055935880E1
4.562895875E0,3.438190870E0,-1.811858237E1,3.433976197E0,1.875890125E1
4.572965875E0,3.532235148E0,-1.710976108E1,2.322138666E0,1.762421452E1
4.583035875E0,3.558711925E0,-1.707169454E1,9.823190734E-1,1.746631432E1
4.593105875E0,3.426476558E0,-1.720541919E1,6.209918439E-1,1.755428216E1
4.603175875E0,4.386869450E0,-1.747806083E1,6.838460501E-1,1.803316054E1
4.613245875E0,6.931615709E0,-1.857486049E1,1.786593500E0,1.990639733E1
4.623315875E0,1.081987495E1,-1.865502465E1,3.759698853E0,2.189097928E1
4.633385875E0,1.690299067E1,-1.833292492E1,5.223646356E0,2.547731758E1
4.643455875E0,2.424598724E1,-1.816335333E1,5.312209454E0,3.075702962E1
4.653525875E0,3.035354666E1,-1.861531503E1,6.303227722E0,3.616073048E1
4.663595875E0,3.434683710E1,-1.979506096E1,9.487273457E0,4.076221308E1
4.673665875E0,3.744410957E1,-2.157566442E1,1.318382940E1,4.518167764E1
4.683735875E0,4.031448435E1,-2.216037196E1,1.679180821E1,4.897248775E1
4.693805875E0,4.303706490E1,-1.947389913E1,1.979012825E1,5.121592407E1
4.703876875E0,4.652716033E1,-1.554907023E1,1.974307921E1,5.288042559E1
4.713946875E0,4.941204556E1,-1.226297947E1,1.809259384E1,5.403029579E1
4.724016875E0,5.068258003E1,-8.539606445E0,1.678926935E1,5.406966212E1
4.734086250E0,5.109061745E1,-5.546846523E0,1.520583750E1,5.359324763E1
4.744156250E0,5.109889243E1,-4.160450057E0,1.262763172E1,5.280022003E1
4.754226250E0,4.992245135E1,-3.922191807E0,1.010143458E1,5.108496568E1
4.764296250E0,4.658127748E1,-4.924444916E0,8.804322762E0,4.766111276E1
4.774366250E0,4.138945051E1,-6.665334093E0,8.854738040E0,4.284763328E1
4.784436250E0,3.548563147E1,-8.331476558E0,1.037313481E1,3.789782933E1
4.794506250E0,2.957616402E1,-9.774840692E0,1.220607788E1,3.345572187E1
4.804576250E0,2.396251189E1,-1.001475780E1,1.390591258E1,2.945966318E1
4.814646250E0,1.962288852E1,-9.295813982E0,1.523205876E1,2.652330156E1
4.824716250E0,1.649933165E1,-8.953786365E0,1.445397912E1,2.369210307E1
4.834786250E0,1.439603322E1,-9.232414961E0,1.254330668E1,2.120890853E1
4.844856250E0,1.341148021E1,-1.046307902E1,1.022074702E1,1.984458349E1
4.854926250E0,1.277824313E1,-1.225143356E1,7.580601683E0,1.925737894E1
4.864996250E0,1.190634259E1,-1.428803164E1,5.253915052E0,1.932647058E1
4.875066250E0,1.088164728E1,-1.666240114E1,3.057594142E0,2.013441683E1
4.885136250E0,9.611452530E0,-1.917703599E1,1.523313113E0,2.150486485E1
4.895206250E0,8.119702687E0,-2.150634685E1,3.751465389E-1,2.299115616E1
4.905276250E0,6.350776110E0,-2.406508608E1,-6.340086231E-1,2.489704184E1
4.915346250E0,4.776647184E0,-2.623872067E1,-5.275930989E-1,2.667517901E1
4.925416250E0,3.879190214E0,-2.776080704E1,-7.188447055E-1,2.803974433E1
4.935486250E0,3.624438722E0,-2.894534301E1,-7.329117908E-1,2.918058597E1
4.945556250E0,3.838994114E0,-2.932273166E1,2.426214427E-1,2.957396377E1
4.955626250E0,4.447888654E0,-2.934536506E1,9.790437555E-1,2.969667811E1
4.965696250E0,6.123053958E0,-2.949503039E1,2.107524217E0,3.019752086E1
4.975766250E0,7.846300331E0,-2.956267566E1,3.613747673E0,3.079895117E1
4.985836250E0,8.951450402E0,-2.924730959E1,5.045639570E0,3.099987196E1
4.995906250E0,1.029176379E1,-2.900291469E1,6.779106292E0,3.151262834E1
5.005976250E0,1.226665152E1,-2.841156940E1,8.977861691E0,3.222250791E1
5.016046250E0,1.474768594E1,-2.711097790E1,1.039877252E1,3.256737375E1
5.026116250E0,1.765585243E1,-2.488939380E1,1.003136506E1,3.212225605E1
5.036186250E0,2.082856568E1,-2.232534998E1,8.567560229E0,3.171204011E1
5.046256250E0,2.368649056E1,-1.976633242E1,6.042579314E0,3.143676983E1
5.056326250E0,2.544142008E1,-1.766666861E1,3.726231730E0,3.119714471E1
5.066397250E0,2.542635999E1,-1.577469089E1,3.046726799E0,3.007695462E1
5.076467250E0,2.450704203E1,-1.365634991E1,2.598807861E0,2.817525163E1
5.086537250E0,2.347138319E1,-1.170872190E1,1.601877765E0,2.627862268E1
5.096607250E0,2.262864739E1,-1.006296926E1,5.057702668E-1,2.477044280E1
5.106677250E0,2.123289597E1,-8.810044262E0,-9.134286404E-1,2.300624052E1
5.116747250E0,1.942497431E1,-7.721473972E0,-2.106976333E0,2.100928691E1
5.126817250E0,1.717537737E1,-7.271376361E0,-2.696829414E0,1.884514237E1
5.136887250E0,1.418188596E1,-8.083758683E0,-2.427137117E0,1.650345535E1
5.146957250E0,1.042080716E1,-1.029243271E1,-1.396699845E0,1.471319692E1
5.157027250E0,7.001853048E0,-1.366649600E1,1.353280175E0,1.541526601E1
5.167097250E0,3.513503593E0,-1.787593111E1,5.104565470E0,1.891957212E1
5.177167250E0,-6.805299479E-1,-2.254552805E1,9.242730619E0,2.437605435E1
5.187237250E0,-4.802829262E0,-2.783445155E1,1.247803071E1,3.087920194E1
5.197307250E0,-8.316773735E0,-3.448507464E1,1.372887644E1,3.803775948E1
5.207377250E0,-1.310688706E1,-3.953024175E1,1.453949933E1,4.411153525E1
5.217447250E0,-1.887951563E1,-4.202545449E1,1.834932402E1,4.959105391E1
5.227517250E0,-2.451880195E1,-4.325375803E1,2.898961344E1,5.755394792E1
5.237587250E0,-2.809693306E1,-4.188813848E1,3.261720499E1,6.006609571E1
5.247657250E0,-2.769011888E1,-3.969993263E1,2.889280694E1,5.637039673E1
5.257727250E0,-2.524008173E1,-3.603997558E1,2.522189923E1,5.071573490E1
5.267797250E0,-2.029467747E1,-3.343805349E1,2.084485135E1,4.432251327E1
5.277867250E0,-1.335266424E1,-3.013323995E1,1.445616014E1,3.599008694E1
5.287937250E0,-5.776533340E0,-2.693438497E1,8.047446889E0,2.869827229E1
5.298007250E0,1.193144819E0,-2.476689931E1,3.433616009E0,2.503223152E1
5.308077250E0,7.870512482E0,-2.372852503E1,1.482018907E0,2.504364683E1
5.318147250E0,1.389977418E1,-2.463746768E1,2.841886848E0,2.843035098E1
5.328217250E0,1.987350253E1,-2.719933868E1,8.479815742E0,3.473711851E1
5.338287250E0,2.529245641E1,-3.041514123E1,1.457149997E1,4.215587478E1
5.348357250E0,2.914726140E1,-3.296996517E1,2.047719246E1,4.853758194E1
5.358427250E0,3.058204182E1,-3.431532763E1,2.515148706E1,5.239656757E1
5.368497250E0,3.050996436E1,-3.382343412E1,2.713044913E1,5.301833542E1
5.378567250E0,2.869956348E1,-3.095772542E1,2.594229023E1,4.954844225E1
5.388637250E0,2.538442843E1,-2.825982480E1,2.128378078E1,4.354292398E1
5.398707250E0,2.226492251E1,-2.624474565E1,1.603275425E1,3.796791616E1
5.408777250E0,1.951636746E1,-2.404023776E1,1.128041803E1,3.295556798E1
5.418847250E0,1.739217809E1,-2.245125924E1,7.787551017E0,2.944813833E1
5.428917250E0,1.540427797E1,-2.137847760E1,6.557789764E0,2.715392588E1
5.438987250E0,1.314484016E1,-2.092239478E1,6.705976335E0,2.560280346E1
5.449057250E0,1.088263312E1,-2.107789330E1,7.681180809E0,2.493410973E1
5.459127250E0,8.739619812E0,-2.149653522E1,8.882488341E0,2.484714431E1
5.469197250E0,6.637234129E0,-2.187056056E1,1.021246151E1,2.503335108E1
5.479268250E0,4.702675229E0,-2.188038388E1,1.097991792E1,2.492839647E1
5.489338250E0,3.252095046E0,-2.176066565E1,1.096557237E1,2.458345926E1
5.499408250E0,1.933685326E0,-2.161464196E1,1.091209022E1,2.429003086E1
5.509478250E0,1.043630345E0,-2.122843337E1,1.053847887E1,2.372330256E1
5.519548250E0,8.059316736E-1,-2.060637149E1,1.001615177E1,2.292586679E1
5.529618250E0,1.099857756E0,-1.979700457E1,9.240936109E0,2.187523662E1
5.539688250E0,1.340260765E0,-1.832121529E1,8.533734087E0,2.025556334E1
5.549758250E0,1.638514372E0,-1.663953970E1,7.295199087E0,1.824222959E1
5.559828250E0,2.141579570E0,-1.501829741E1,5.525427588E0,1.614515315E1
5.569898250E0,2.495152515E0,-1.382372763E1,3.681309911E0,1.452147631E1
5.579968250E0,2.400258052E0,-1.324867736E1,2.386187312E0,1.367415739E1
5.590038250E0,2.340252171E0,-1.312852526E1,1.605427609E0,1.343176659E1
5.600108250E0,2.165064327E0,-1.278644794E1,8.350233257E-1,1.299530756E1
5.610178250E0,3.024589241E0,-1.267494271E1,2.018574326E-1,1.303238502E1
5.620248250E0,7.041209487E0,-1.316043586E1,-9.223930067E-1,1.495414698E1
5.630318250E0,1.390567402E1,-1.450934524E1,-2.841845040E0,2.029691978E1
5.640388250E0,2.170080887E1,-1.670865963E1,-4.645595879E0,2.777923637E1
5.650458250E0,2.974261788E1,-2.122472390E1,-3.552376467E0,3.671146417E1
5.660528250E0,3.822943274E1,-2.775765188E1,2.644305923E0,4.731774635E1
5.670598250E0,4.592539764E1,-2.907602126E1,1.200372329E1,5.566548782E1
5.680668250E0,5.231580560E1,-2.463812257E1,2.010616324E1,6.122285847E1
5.690738250E0,5.824072373E1,-1.919208556E1,2.274142615E1,6.540252680E1
5.700808250E0,6.245668784E1,-1.502512462E1,2.071723703E1,6.749663796E1
5.710878250E0,6.456677957E1,-9.420926270E0,1.970967056E1,6.816226220E1
5.720948250E0,6.687455396E1,-4.678639079E0,1.889483182E1,6.964991243E1
5.731018167E0,6.912475433E1,-1.251940911E0,1.730912190E1,7.126994260E1
5.741088167E0,6.953055110E1,5.536652488E-1,1.608376770E1,7.136870228E1
5.751158167E0,6.643750968E1,1.073382148E0,1.496633321E1,6.811083593E1
5.761228167E0,5.923972286E1,1.036763375E0,1.432961119E1,6.095701272E1
5.771299167E0,4.969778729E1,-4.094647247E-1,1.473777490E1,5.183859308E1
5.781369167E0,4.037845289E1,-2.859284946E0,1.513182462E1,4.321535704E1
5.791439167E0,3.228309274E1,-5.151611583E0,1.415513027E1,3.562449848E1
5.801509167E0,2.595136979E1,-7.460646054E0,1.177067198E1,2.945646877E1
5.811579167E0,2.146188229E1,-1.043114153E1,9.117386781E0,2.554501608E1
5.821649167E0,1.812507512E1,-1.378415250E1,7.343673674E0,2.392594306E1
5.831719167E0,1.538475178E1,-1.735201591E1,6.269635468E0,2.402272616E1
5.841789167E0,1.333854906E1,-2.113239870E1,5.691271580E0,2.562978225E1
5.851859167E0,1.146628464E1,-2.437027098E1,4.832592174E0,2.736310908E1
5.861929167E0,9.468550088E0,-2.667453705E1,3.985924703E0,2.858447066E1
5.871999167E0,8.181704807E0,-2.833429494E1,3.229213722E0,2.966817123E1
5.882069167E0,7.186370124E0,-2.942035677E1,3.248904805E0,3.045909865E1
5.892139167E0,6.704835543E0,-2.991822380E1,4.378389233E0,3.097136140E1
5.902209167E0,6.851380216E0,-2.953212045E1,5.896959085E0,3.088465113E1
5.912279167E0,7.488525578E0,-2.908921492E1,6.909303319E0,3.082205237E1
5.922349167E0,8.228222331E0,-2.846668759E1,7.238808539E0,3.050338169E1
5.932419167E0,9.476566620E0,-2.775839565E1,8.053676512E0,3.041702729E1
5.942489167E0,1.075505974E1,-2.704342385E1,8.430821922E0,3.030011290E1
5.952559167E0,1.184433988E1,-2.607167040E1,8.906705169E0,2.998916107E1
5.962629167E0,1.244820640E1,-2.419671626E1,8.806421912E0,2.860055921E1
5.972699167E0,1.393469960E1,-2.139834410E1,7.008705985E0,2.647993472E1
5.982769167E0,1.756514341E1,-1.890079715E1,3.066899693E0,2.598423117E1
5.992839167E0,2.289150780E1,-1.614029507E1,-2.218343571E0,2.809717606E1
6.002909167E0,2.876879452E1,-1.382590045E1,-7.365048171E0,3.275733499E1
6.012979167E0,3.409647102E1,-1.290491955E1,-1.182014176E1,3.832521410E1
6.023049167E0,3.797297620E1,-1.353801162E1,-1.542351180E1,4.316375095E1
6.033119167E0,3.983926944E1,-1.573797623E1,-1.614548038E1,4.577693548E1
6.043189167E0,4.046385498E1,-1.767488395E1,-1.351321124E1,4.617718009E1
6.053259167E0,3.961514800E1,-1.940947451E1,-9.075797875E0,4.503840316E1
6.063330167E0,3.777547128E1,-2.003970145E1,-3.733050753E0,4.292448640E1
6.073400167E0,3.510081919E1,-1.963550915E1,1.519995769E-1,4.021994321E1
6.083470167E0,3.246494349E1,-1.928738231E1,1.887276560E0,3.780922486E1
6.093540167E0,2.960450898E1,-1.855832339E1,2.112099078E0,3.500427519E1
6.103610167E0,2.587672891E1,-1.703259772E1,2.045952451E0,3.104674549E1
6.113680167E0,2.134649333E1,-1.659767012E1,2.139318452E0,2.712438229E1
6.123750167E0,1.602816769E1,-1.778995482E1,3.192998115E0,2.415739822E1
6.133820167E0,1.015860866E1,-2.039817786E1,5.155383621E0,2.336366774E1
6.143890167E0,3.484383289E0,-2.451033051E1,8.269263353E0,2.610130159E1
6.153960167E0,-3.358354157E0,-3.230035372E1,1.271983763E1,3.487672093E1
6.164030167E0,-1.206016763E1,-3.890220167E1,2.062468497E1,4.565311127E1
6.174100167E0,-2.031507022E1,-4.238590493E1,3.091309479E1,5.625732348E1
6.184170167E0,-2.628206258E1,-4.302042139E1,3.872540760E1,6.357012398E1
6.194240167E0,-2.986157597E1,-4.163704501E1,4.205656636E1,6.628809856E1
6.204310167E0,-3.174524948E1,-4.053495245E1,4.117119032E1,6.592351740E1
6.214380167E0,-3.186098692E1,-3.865738343E1,3.852757524E1,6.319722965E1
6.224450167E0,-2.926043776E1,-3.691742981E1,3.430984294E1,5.827722681E1
6.234520167E0,-2.437750282E1,-3.510184362E1,2.921638016E1,5.176870617E1
6.244590167E0,-1.863750171E1,-3.282309247E1,2.369075435E1,4.456415276E1
6.254660167E0,-1.289255152E1,-3.026474383E1,1.829906955E1,3.764343967E1
6.264730167E0,-6.601553834E0,-2.851064462E1,1.241285413E1,3.178861931E1
6.274800167E0,7.781650007E-2,-2.720572618E1,7.205321535E0,2.814381372E1
6.284870167E0,7.465501581E0,-2.646169840E1,3.580626997E0,2.772681167E1
6.294940167E0,1.610852364E1,-2.761339406E1,3.142909988E0,3.212260806E1
6.305010167E0,2.480378589E1,-2.909814478E1,5.662230799E0,3.865217564E1
6.315080167E0,3.150506457E1,-2.952264796E1,8.652520273E0,4.403432687E1
6.325150167E0,3.582545995E1,-2.942344410E1,1.237101263E1,4.798171106E1
6.335220167E0,3.683350355E1,-2.866787859E1,1.590955341E1,4.931194720E1
6.345290167E0,3.444728525E1,-2.805049214E1,1.843876537E1,4.809816669E1
6.355360167E0,3.001772703E1,-2.685022249E1,1.943227514E1,4.471701803E1
6.365431167E0,2.472135886E1,-2.478302125E1,1.802847912E1,3.937473537E1
6.375501167E0,1.996315671E1,-2.321755790E1,1.532873311E1,3.424255656E1
6.385571167E0,1.598222261E1,-2.181300992E1,1.238386013E1,2.974220626E1
6.395641167E0,1.260002000E1,-2.077744464E1,9.898028662E0,2.623801977E1
6.405711167E0,9.900341821E0,-2.044012579E1,8.362618829E0,2.420224998E1
6.415781167E0,7.303364723E0,-2.036847401E1,7.472399542E0,2.289215203E1
6.425851167E0,4.534607832E0,-2.062524162E1,7.148665524E0,2.229499224E1
6.435921167E0,1.779581957E0,-2.119509021E1,7.560019484E0,2.257327303E1
6.445991167E0,-3.710999733E-1,-2.212510155E1,8.555514965E0,2.372455838E1
6.456061167E0,-1.754833032E0,-2.272148013E1,9.777025212E0,2.479788943E1
6.466131167E0,-2.379984586E0,-2.311019835E1,1.106905990E1,2.573460086E1
6.476201167E0,-2.497235878E0,-2.298630754E1,1.122777789E1,2.570349232E1
6.486271167E0,-2.048702397E0,-2.222712143E1,1.017214028E1,2.452987050E1
6.496341167E0,-1.360885649E0,-2.135474025E1,8.068221461E0,2.286860595E1
6.506411167E0,-4.756095976E-1,-2.043253610E1,5.743528731E0,2.122976350E1
6.516481167E0,5.509468782E-1,-1.960435519E1,3.446393929E0,1.991260696E1
6.526551167E0,1.698296889E0,-1.891164608E1,1.217661756E0,1.902675143E1
6.536621167E0,2.441668033E0,-1.871834297E1,-4.475653280E-1,1.888222501E1
6.546691167E0,3.264483542E0,-1.958032196E1,-5.299998128E-1,1.985766252E1
6.556761167E0,4.572600408E0,-1.953666782E1,1.200077278E0,2.010050371E1
6.566831167E0,6.299821719E0,-1.952059149E1,2.996599496E0,2.072970946E1
6.576901167E0,8.591452537E0,-1.970882154E1,4.328590544E0,2.193142493E1
6.586971167E0,1.118961896E1,-1.927806185E1,5.456323439E0,2.294826151E1
6.597041167E0,1.424309111E1,-1.854860766E1,7.588138744E0,2.458650727E1
6.607111167E0,1.814312547E1,-1.851698124E1,1.214663976E1,2.862852517E1
6.617181167E0,2.322558028E1,-1.980378500E1,1.683569858E1,3.485768533E1
6.627251167E0,2.819394539E1,-2.197021816E1,2.062681335E1,4.126808054E1
6.637321167E0,3.270778069E1,-2.397246619E1,2.400621164E1,4.712511274E1
6.647391167E0,3.780954184E1,-2.187824380E1,2.810339775E1,5.194246789E1
6.657462167E0,4.710761109E1,-1.851712157E1,2.987261785E1,5.877400881E1
6.667532167E0,6.044145198E1,-1.589471552E1,2.792015302E1,6.844958761E1
6.677602167E0,7.108615839E1,-1.260137538E1,2.463576498E1,7.628209155E1
6.687672167E0,7.217157001E1,-1.076566893E1,2.275309017E1,7.643518992E1
6.697742167E0,7.199371642E1,-1.004369684E1,2.346053076E1,7.638303185E1
6.707812167E0,7.007675589E1,-9.507408344E0,2.473470454E1,7.491961117E1
6.717882167E0,6.091310710E1,-9.716223525E0,2.459722481E1,6.640658917E1
6.727952167E0,5.021244986E1,-1.044206413E1,2.184178758E1,5.574397285E1
6.738022750E0,4.043672390E1,-1.064472278E1,1.732260909E1,4.526048551E1
6.748092750E0,3.228851194E1,-1.039931748E1,1.344198514E1,3.648809082E1
6.758162750E0,2.610742028E1,-1.054364547E1,9.936648352E0,2.985804471E1
6.768232750E0,2.148871867E1,-1.160488704E1,7.348095338E0,2.550358677E1
6.778302750E0,1.824186039E1,-1.353308827E1,6.035145164E0,2.350176431E1
6.788372750E0,1.560598118E1,-1.570485994E1,5.342826644E0,2.277575620E1
6.798442750E0,1.339410697E1,-1.829972911E1,4.774543941E0,2.317495322E1
6.808512750E0,1.150888512E1,-2.105269180E1,4.421805687E0,2.439718496E1
6.818582750E0,9.292896221E0,-2.351613778E1,3.646569264E0,2.554729191E1
6.828652750E0,6.740399478E0,-2.562675342E1,2.649299152E0,2.663047619E1
6.838722750E0,4.676496660E0,-2.741095877E1,2.219172122E0,2.789542986E1
6.848792750E0,3.331597883E0,-2.826453298E1,2.096588900E0,2.853732738E1
6.858862750E0,2.665616392E0,-2.871885695E1,2.096762416E0,2.891841400E1
6.868932750E0,2.973556497E0,-2.852600877E1,2.990304676E0,2.883603885E1
6.879002750E0,4.208180879E0,-2.758445502E1,4.154719201E0,2.821121473E1
6.889073750E0,6.324030946E0,-2.694689801E1,5.399330628E0,2.820073494E1
6.899143750E0,8.978792567E0,-2.603178537E1,6.521852192E0,2.829853568E1
6.909213750E0,1.206294622E1,-2.552300277E1,6.217880008E0,2.890675308E1
6.919283750E0,1.498391228E1,-2.475653103E1,5.549365504E0,2.946521531E1
6.929353750E0,1.698269875E1,-2.423050849E1,4.703156747E0,2.996079575E1
6.939423750E0,1.852082871E1,-2.457072757E1,4.365154938E0,3.107726382E1
6.949493750E0,1.937770425E1,-2.444867279E1,5.220803440E0,3.163052025E1
6.959563750E0,2.052556998E1,-2.367872780E1,6.283286963E0,3.196030144E1
6.969633750E0,2.259256539E1,-2.247443760E1,6.661842721E0,3.255617461E1
6.979703750E0,2.571653859E1,-2.076114728E1,6.126057673E0,3.361389856E1
6.989773750E0,2.903600525E1,-1.855238028E1,3.874423563E0,3.467407639E1
6.999843750E0,3.154997820E1,-1.719725297E1,1.720064903E0,3.597367451E1
7.009913750E0,3.264420041E1,-1.642606604E1,1.302204308E0,3.656713281E1
7.019983750E0,3.223912402E1,-1.614998157E1,1.479235632E0,3.608837985E1
7.030053750E0,3.071960107E1,-1.632199028E1,1.837317803E0,3.483499668E1
7.040123750E0,2.849231243E1,-1.576195917E1,2.472766449E0,3.265525683E1
7.050193750E0,2.572801083E1,-1.464567892E1,2.961494275E0,2.975225874E1
7.060263750E0,2.240421722E1,-1.423605223E1,3.105446877E0,2.672560444E1
7.070333750E0,1.888138907E1,-1.383474261E1,3.159381595E0,2.361966656E1
7.080403750E0,1.472531566E1,-1.381099707E1,3.520261804E0,2.049318922E1
7.090473750E0,9.815451944E0,-1.438463465E1,3.758214830E0,1.781530212E1
7.100543750E0,4.508495629E0,-1.678576453E1,4.425613686E0,1.793528589E1
7.110613750E0,-7.730293912E-1,-2.185217925E1,6.035586628E0,2.268355392E1
7.120683750E0,-6.776724721E0,-2.832757298E1,8.738508257E0,3.040948726E1
7.130753750E0,-1.430078558E1,-3.364862342E1,1.367934818E1,3.903673774E1
7.140823750E0,-2.017367285E1,-3.753983317E1,1.990723628E1,4.703737033E1
7.150893750E0,-2.416853034E1,-3.922641575E1,2.561451871E1,5.271558707E1
7.160963750E0,-2.760853853E1,-3.852574857E1,2.849212766E1,5.530159167E1
7.171033750E0,-3.103948119E1,-3.821582510E1,2.777568938E1,5.652775956E1
7.181104750E0,-3.339628566E1,-3.740765569E1,2.570720409E1,5.635161881E1
7.191174750E0,-3.318903695E1,-3.573139228E1,2.273447498E1,5.380614203E1
7.201244750E0,-3.060905595E1,-3.356935155E1,1.874731710E1,4.914547353E1
7.211314750E0,-2.623829734E1,-3.127823704E1,1.474719594E1,4.340801939E1
7.221384750E0,-2.023938854E1,-2.917041169E1,1.099283442E1,3.716703076E1
7.231454750E0,-1.342566205E1,-2.730406699E1,7.681330497E0,3.138093871E1
7.241524750E0,-6.696174647E0,-2.596414011E1,4.980365932E0,2.727231877E1
7.251594750E0,1.262530804E-1,-2.552386348E1,3.420962634E0,2.575240828E1
7.261664750E0,7.132600299E0,-2.596186437E1,3.031508543E0,2.709395565E1
7.271734750E0,1.401631035E1,-2.693508664E1,4.334364377E0,3.067152690E1
7.281804750E0,2.090321591E1,-2.838026107E1,6.552147201E0,3.585128013E1
7.291874750E0,2.569679137E1,-2.989872684E1,8.384535363E0,4.030582324E1
7.301944750E0,2.882984179E1,-3.091457063E1,1.079333093E1,4.362758815E1
7.312014750E0,2.991061540E1,-3.110148507E1,1.335911372E1,4.517093320E1
7.322084750E0,2.913417065E1,-3.069742375E1,1.576980964E1,4.516435121E1
7.332154750E0,2.751241264E1,-2.935692384E1,1.729566746E1,4.379385733E1
7.342224750E0,2.510319607E1,-2.811721589E1,1.654458676E1,4.116396037E1
7.352294750E0,2.203162562E1,-2.688881411E1,1.453990162E1,3.768036081E1
7.362364750E0,1.901630890E1,-2.579471118E1,1.239145683E1,3.435891924E1
7.372434750E0,1.602911377E1,-2.496631743E1,1.036814129E1,3.142845603E1
7.382504750E0,1.291615556E1,-2.449233044E1,8.889851739E0,2.908145094E1
7.392574750E0,9.902419921E0,-2.451820320E1,7.715976419E0,2.754517200E1
7.402644750E0,7.278678948E0,-2.492159091E1,7.663614603E0,2.707020224E1
7.412714750E0,5.031178821E0,-2.503026024E1,9.163540024E0,2.712558117E1
7.422784750E0,3.447110798E0,-2.532141182E1,1.025471700E1,2.753571663E1
7.432854750E0,2.790577823E0,-2.557563239E1,1.051267628E1,2.779238491E1
7.442924750E0,2.530214759E0,-2.526982067E1,1.002575407E1,2.730350835E1
7.452995750E0,2.647074872E0,-2.501253616E1,8.619023913E0,2.658799624E1
7.463065750E0,3.162180657E0,-2.501869445E1,8.152637129E0,2.650282911E1
7.473135750E0,3.205005664E0,-2.408584604E1,8.678107688E0,2.580134868E1
7.483205750E0,3.044468604E0,-2.329152050E1,8.599885392E0,2.501443074E1
7.493275750E0,3.225151076E0,-2.248779031E1,8.197733195E0,2.415171095E1
7.503345750E0,3.433015500E0,-2.059056295E1,7.609264149E0,2.221841081E1
7.513415750E0,4.319789023E0,-1.981288093E1,6.018969426E0,2.115274973E1
7.523485750E0,5.385610721E0,-2.028214806E1,4.626588920E0,2.148896595E1
7.533555750E0,6.273307520E0,-2.100206426E1,5.210766109E0,2.252982854E1
7.543625750E0,7.714723946E0,-2.162705677E1,6.728989806E0,2.392751249E1
7.553695750E0,1.061884768E1,-2.159118060E1,9.202767824E0,2.576101592E1
7.563765750E0,1.547183319E1,-1.972053235E1,1.096811473E1,2.736012718E1
7.573835750E0,2.220555690E1,-1.754906123E1,1.094971121E1,3.034719893E1
7.583905750E0,2.877857808E1,-1.611916089E1,1.013664886E1,3.450776078E1
7.593975750E0,3.445225772E1,-1.629207124E1,1.103720660E1,3.967631003E1
7.604045750E0,4.100681339E1,-1.920671646E1,1.317290095E1,4.715911387E1
7.614115750E0,4.703821634E1,-2.140162322E1,1.741943313E1,5.453494222E1
7.624185750E0,5.138403073E1,-2.189354246E1,2.477683022E1,6.110267696E1
7.634255750E0,5.576794559E1,-2.043034457E1,3.178000065E1,6.736045706E1
7.644325750E0,6.024741797E1,-1.678710705E1,3.653214274E1,7.243035129E1
7.654395750E0,6.496080238E1,-1.162015529E1,3.730417869E1,7.580590744E1
7.664465750E0,6.904081638E1,-6.793317364E0,3.274474679E1,7.671376624E1
7.674535750E0,7.210007961E1,-3.524367719E0,2.484172730E1,7.634103787E1
7.684606750E0,7.132331677E1,-1.769710688E0,1.676432629E1,7.328840309E1
7.694676750E0,6.498498178E1,-1.778078054E0,1.215203206E1,6.613532568E1
7.704746750E0,5.579526378E1,-3.232906238E0,1.065117810E1,5.689473383E1
7.714816750E0,4.576593238E1,-5.973528959E0,1.128390882E1,4.751347401E1
7.724886750E0,3.687637768E1,-9.732078835E0,1.175251521E1,3.990867328E1
7.734959125E0,2.977615984E1,-1.339220311E1,1.089641384E1,3.441950949E1
7.745029125E0,2.431018733E1,-1.688273241E1,9.936053106E0,3.122077855E1
7.755099125E0,1.956741950E1,-1.993429954E1,8.579751674E0,2.922109414E1
7.765169125E0,1.518394903E1,-2.251179196E1,7.058673366E0,2.805633538E1
7.775239125E0,1.127527482E1,-2.486226740E1,5.589287953E0,2.786582678E1
7.785309125E0,7.948054163E0,-2.694800431E1,4.053886599E0,2.838662533E1
7.795379125E0,5.393213856E0,-2.838951370E1,3.200005710E0,2.907389345E1
7.805449125E0,3.542331535E0,-2.939398115E1,2.743750981E0,2.973352334E1
7.815519125E0,2.492563367E0,-2.989504543E1,3.168846483E0,3.016567920E1
7.825589125E0,2.281650206E0,-2.986524568E1,4.222536963E0,3.024844865E1
7.835659125E0,2.752279730E0,-2.951726385E1,5.929855521E0,3.023255026E1
7.845729125E0,3.819994757E0,-2.904552452E1,7.601076293E0,3.026567718E1
7.855799125E0,5.685308005E0,-2.844432316E1,8.928993001E0,3.035010977E1
7.865869125E0,8.040573487E0,-2.741322048E1,9.051365869E0,2.996769432E1
7.875939125E0,1.103918296E1,-2.705218532E1,8.195949794E0,3.034564028E1
7.886009125E0,1.422166925E1,-2.679822437E1,6.505051972E0,3.102767163E1
7.896079125E0,1.735433023E1,-2.625760016E1,5.184413878E0,3.189847162E1
7.906149125E0,2.000518884E1,-2.570155101E1,4.399782734E0,3.286541332E1
7.916219125E0,2.236440236E1,-2.603625732E1,5.411082362E0,3.474669770E1
7.926289125E0,2.416324212E1,-2.602030378E1,7.208342791E0,3.623366783E1
7.936360125E0,2.601826661E1,-2.604341432E1,7.769580184E0,3.762414123E1
7.946430125E0,2.787236724E1,-2.588416891E1,8.807733443E0,3.904401649E1
7.956500125E0,2.949290668E1,-2.548099637E1,1.032986776E1,4.032144453E1
7.966570125E0,3.037459196E1,-2.463974810E1,1.134014149E1,4.072262065E1
7.976640125E0,3.076084032E1,-2.375985207E1,1.101592391E1,4.039938671E1
7.986710125E0,3.038169048E1,-2.257213756E1,9.069910898E0,3.892058317E1
7.996780125E0,2.934418626E1,-2.136804851E1,6.684706503E0,3.691016209E1
8.006850125E0,2.779862917E1,-2.033542555E1,4.834573796E0,3.478025905E1
8.016920125E0,2.553655661E1,-1.966859738E1,4.309659891E0,3.251988030E1
8.026990125E0,2.224840296E1,-1.902572175E1,4.910229750E0,2.968298971E1
8.037060125E0,1.827629464E1,-1.883465228E1,5.734235752E0,2.686351675E1
8.047130125E0,1.368297112E1,-1.877566440E1,5.525412385E0,2.388052458E1
8.057200125E0,8.819721989E0,-1.975993790E1,4.675647644E0,2.213829991E1
8.067270125E0,3.802992808E0,-2.270763626E1,4.402092091E0,2.344094524E1
8.077340125E0,-2.163478562E0,-2.770360490E1,5.423238723E0,2.831222143E1
8.087410125E0,-9.736750760E0,-3.155749304E1,8.452972929E0,3.409006356E1
8.097480125E0,-1.703927524E1,-3.545070722E1,1.266830963E1,4.132282192E1
8.107550125E0,-2.314759714E1,-3.806791627E1,1.787300282E1,4.800439284E1
8.117620125E0,-2.753761414E1,-3.973577372E1,2.219738015E1,5.319751490E1
8.127690125E0,-3.082270386E1,-4.024988899E1,2.359398060E1,5.591751565E1
8.137760125E0,-3.345538932E1,-3.930601273E1,2.315962135E1,5.657379050E1
8.147830125E0,-3.502468143E1,-3.761355487E1,2.258339228E1,5.613837748E1
8.157900125E0,-3.530023497E1,-3.620546815E1,2.124249943E1,5.484693515E1
8.167970125E0,-3.425278113E1,-3.473762290E1,1.901924303E1,5.236112170E1
8.178040125E0,-3.159633493E1,-3.323720865E1,1.631213421E1,4.867366991E1
8.188110125E0,-2.661458204E1,-3.182616792E1,1.301927706E1,4.348266915E1
8.198180125E0,-1.937287094E1,-3.063545964E1,9.331891887E0,3.742891559E1
8.208250125E0,-1.122303112E1,-2.991735841E1,5.636866747E0,3.244655649E1
8.218320125E0,-2.836536938E0,-2.944662948E1,2.397236942E0,2.967990355E1
8.228390125E0,5.533192690E0,-2.943731370E1,-4.122110157E-1,2.995566018E1
8.238461125E0,1.368746061E1,-3.019803645E1,-1.141888419E0,3.317486839E1
8.248531125E0,2.184050119E1,-3.148878826E1,1.164306352E-1,3.832185844E1
8.258601125E0,2.748202116E1,-3.296339757E1,2.280190156E0,4.297727694E1
8.268671125E0,3.035643285E1,-3.358268320E1,5.738493694E0,4.563156732E1
8.278741125E0,3.081884470E1,-3.450864593E1,8.725276008E0,4.708267488E1
8.288811125E0,2.905814281E1,-3.525459862E1,1.316840795E1,4.754649678E1
8.298881125E0,2.616176898E1,-3.449181063E1,1.726349725E1,4.660634607E1
8.308951125E0,2.369900127E1,-3.376446144E1,1.773771111E1,4.490331739E1
8.319021125E0,2.190199987E1,-3.267725355E1,1.651529923E1,4.266445366E1
8.329091125E0,1.997119313E1,-3.115593434E1,1.396566294E1,3.955477899E1
8.339161125E0,1.721016830E1,-2.967154146E1,1.093680874E1,3.600283393E1
8.349231125E0,1.357389014E1,-2.816186522E1,9.451320097E0,3.265989280E1
8.359301125E0,9.616185266E0,-2.729966755E1,8.682986605E0,3.021815884E1
8.369371125E0,5.891699515E0,-2.685984934E1,8.498818023E0,2.878182652E1
8.379441125E0,3.240373718E0,-2.677900340E1,8.536599222E0,2.829290673E1
8.389511125E0,1.901245558E0,-2.675966783E1,8.064987366E0,2.801318579E1
8.399581125E0,1.379426585E0,-2.665400864E1,6.977267845E0,2.758661380E1
8.409651125E0,1.616909494E0,-2.645235922E1,6.146084386E0,2.720507412E1
8.419721125E0,1.665786370E0,-2.597779920E1,5.901384258E0,2.669170717E1
8.429791125E0,1.624212082E0,-2.500750054E1,6.528140872E0,2.589652045E1
8.439861125E0,1.761547975E0,-2.409379591E1,6.649079418E0,2.505642253E1
8.449931125E0,1.889504934E0,-2.307085594E1,6.101158474E0,2.393864569E1
8.460001125E0,1.878553099E0,-2.202013701E1,5.164884177E0,2.269562567E1
8.470071125E0,1.716181768E0,-2.068757294E1,4.080655444E0,2.115591413E1
8.480141125E0,1.815323648E0,-1.960733376E1,2.950928357E0,1.991107519E1
8.490212125E0,2.273835402E0,-1.920233105E1,1.632711449E0,1.940529803E1
8.500282125E0,2.729003134E0,-1.877034811E1,1.225623325E0,1.900725069E1
8.510352125E0,3.304846287E0,-1.905118754E1,1.357786624E0,1.938332634E1
8.520422125E0,4.617263196E0,-1.950647982E1,1.821616714E0,2.012809384E1
8.530492125E0,7.436123416E0,-1.957933262E1,2.649794996E0,2.111084107E1
8.540562125E0,1.210771017E1,-1.932574589E1,3.204940760E0,2.302938872E1
8.550632125E0,1.841112559E1,-1.863206029E1,3.532831564E0,2.643112020E1
8.560702125E0,2.546157894E1,-1.940537444E1,4.018373534E0,3.226465380E1
8.570772125E0,3.147202780E1,-2.178969123E1,6.148999223E0,3.876969653E1
8.580842125E0,3.648391256E1,-2.363716111E1,9.864466814E0,4.457688826E1
8.590912125E0,4.159202145E1,-2.470893002E1,1.482402367E1,5.059821290E1
8.600982125E0,4.728385085E1,-2.474596628E1,2.025409545E1,5.708199174E1
8.611052125E0,5.275249437E1,-2.211089282E1,2.585979303E1,6.277297300E1
8.621122125E0,5.785014843E1,-1.790925556E1,2.927688481E1,6.726453072E1
8.631192125E0,6.238366313E1,-1.177886978E1,2.887714342E1,6.974491100E1
8.641262125E0,6.661756182E1,-5.237354568E0,2.416688845E1,7.105890460E1
8.651332125E0,7.002522087E1,-4.158025217E-1,1.795752783E1,7.229230426E1
8.661402125E0,7.055330864E1,1.027840524E0,1.201489848E1,7.157641792E1
8.671472125E0,6.619873278E1,1.781588137E-2,9.618714187E0,6.689388762E1
8.681542125E0,5.821311084E1,-2.189748348E0,1.026195819E1,5.915123885E1
8.691612125E0,4.923022054E1,-5.084522384E0,1.238196329E1,5.101744797E1
8.701682125E0,4.093823725E1,-8.118791106E0,1.307348542E1,4.373522675E1
8.711752125E0,3.394871890E1,-1.066295907E1,1.200579203E1,3.755467020E1
8.721823125E0,2.851984814E1,-1.328740932E1,1.067816768E1,3.322589727E1
8.731893125E0,2.418659122E1,-1.553117658E1,9.430224513E0,3.025124420E1
8.741963917E0,2.033596115E1,-1.747307081E1,8.293847387E0,2.806505699E1
8.752033917E0,1.690571431E1,-1.904307394E1,7.309810109E0,2.649292670E1
8.762103917E0,1.392316070E1,-2.077763877E1,5.873405331E0,2.569166338E1
8.772173917E0,1.127656822E1,-2.279327224E1,3.690587688E0,2.569658903E1
8.782243917E0,9.570973426E0,-2.510954615E1,1.726319962E0,2.692717996E1
8.792313917E0,8.878373655E0,-2.683571204E1,4.378620198E-1,2.826964242E1
8.802383917E0,8.334927585E0,-2.799426999E1,-2.573684129E-1,2.920986834E1
8.812453917E0,7.356797165E0,-2.868542258E1,-6.892156944E-2,2.961385964E1
8.822523917E0,6.174224111E0,-2.911731897E1,8.427591920E-1,2.977666117E1
8.832593917E0,5.333597984E0,-2.962450880E1,2.023378690E0,3.016873962E1
8.842663917E0,5.009433610E0,-3.015202588E1,3.174428235E0,3.072972640E1
8.852733917E0,5.103654474E0,-3.017376583E1,4.469095920E0,3.092695025E1
8.862803917E0,5.789160402E0,-2.974789440E1,5.887265571E0,3.087250388E1
8.872873917E0,6.984468107E0,-2.908418163E1,6.042495114E0,3.051531031E1
8.882943917E0,8.461640257E0,-2.788350502E1,5.631801889E0,2.967838271E1
8.893013917E0,1.032439593E1,-2.663788202E1,6.264439048E0,2.924744615E1
8.903083917E0,1.275864560E1,-2.482929378E1,7.056784716E0,2.879366385E1
8.913153917E0,1.565418563E1,-2.324504215E1,7.853380140E0,2.910431398E1
8.923223917E0,1.901699653E1,-2.212256620E1,8.691846306E0,3.044014265E1
8.933293917E0,2.345094133E1,-2.060703105E1,9.669728805E0,3.268179972E1
8.943363917E0,2.895004651E1,-1.920478454E1,9.917612157E0,3.612876932E1
8.953433917E0,3.408690732E1,-1.812322974E1,9.186732420E0,3.968330580E1
8.963503917E0,3.697794147E1,-1.768693623E1,8.060405488E0,4.177518409E1
8.973573917E0,3.728750710E1,-1.746997530E1,8.184862304E0,4.198273686E1
8.983644917E0,3.547766288E1,-1.695661081E1,8.123822050E0,4.015205721E1
8.993714917E0,3.186329774E1,-1.623554855E1,8.794530430E0,3.682670967E1
9.003784917E0,2.783300846E1,-1.491554312E1,9.258016995E0,3.290684831E1
9.013854917E0,2.407345696E1,-1.329077965E1,8.186650382E0,2.869141680E1
9.023924917E0,2.010622639E1,-1.250115294E1,7.709027588E0,2.489916205E1
9.033994917E0,1.583756483E1,-1.176474992E1,7.740243534E0,2.119313970E1
9.044064917E0,1.146228281E1,-1.100873300E1,7.208980722E0,1.745123298E1
9.054134917E0,6.952991375E0,-1.135953671E1,6.596966693E0,1.486281039E1
9.064204917E0,3.182958738E0,-1.441566349E1,7.201979266E0,1.642592723E1
9.074274917E0,-1.741207266E-1,-1.981282012E1,8.697797602E0,2.163861923E1
9.084344917E0,-4.720341421E0,-2.567079231E1,1.175299702E1,2.862523607E1
9.094414917E0,-1.007781183E1,-2.984937400E1,1.527116143E1,3.501079535E1
9.104484917E0,-1.464742022E1,-3.301048403E1,1.996866245E1,4.126725646E1
9.114554917E0,-1.895158373E1,-3.593883512E1,2.588219021E1,4.817312701E1
9.124624917E0,-2.307937884E1,-3.830855960E1,2.922929549E1,5.342803741E1
9.134694917E0,-2.667372077E1,-3.854047420E1,2.791663300E1,5.455450421E1
9.144764917E0,-2.819727129E1,-3.776419551E1,2.434985952E1,5.304843286E1
9.154834917E0,-2.833075152E1,-3.613380234E1,2.101030182E1,5.049471196E1
9.164904917E0,-2.821011411E1,-3.455996110E1,1.831279647E1,4.822406001E1
9.174974917E0,-2.738324063E1,-3.278209179E1,1.623790966E1,4.569657667E1
9.185044917E0,-2.436692169E1,-3.108294238E1,1.422493316E1,4.197910079E1
9.195114917E0,-1.849531146E1,-2.996859873E1,1.215654027E1,3.725553552E1
9.205184917E0,-1.091789768E1,-2.896472769E1,1.086379456E1,3.280515161E1
9.215254917E0,-2.637525784E0,-2.821582801E1,1.099230233E1,3.039605571E1
9.225324917E0,5.520283207E0,-2.791218444E1,1.146474098E1,3.067578610E1
9.235394917E0,1.268304227E1,-2.796509238E1,1.311816751E1,3.339150000E1
9.245464917E0,1.942726291E1,-2.778629856E1,1.492819650E1,3.704521538E1
9.255534917E0,2.448307546E1,-2.682828373E1,1.573295347E1,3.958160706E1
9.265604917E0,2.719941821E1,-2.574044902E1,1.559550531E1,4.056598147E1
9.275674917E0,2.826199061E1,-2.482325945E1,1.500015467E1,4.049615986E1
9.285745917E0,2.884013055E1,-2.433270145E1,1.421650849E1,4.032297860E1
9.295815917E0,2.941250279E1,-2.384141371E1,1.438169351E1,4.050112883E1
9.305885917E0,2.910961000E1,-2.378088334E1,1.466206399E1,4.034694446E1
9.315955917E0,2.721738787E1,-2.369100461E1,1.503238920E1,3.908993000E1
9.326025917E0,2.395854280E1,-2.351227628E1,1.599374513E1,3.718385123E1
9.336095917E0,1.961701324E1,-2.327661946E1,1.616835352E1,3.446801238E1
9.346165917E0,1.499448287E1,-2.315528272E1,1.590753729E1,3.184417336E1
9.356235917E0,1.090989284E1,-2.287216053E1,1.541332361E1,2.966027704E1
9.366305917E0,7.629910083E0,-2.270491146E1,1.468250234E1,2.809456188E1
9.376375917E0,5.282771646E0,-2.276652006E1,1.373761101E1,2.710985186E1
9.386445917E0,3.660150007E0,-2.275380353E1,1.327288366E1,2.659514456E1
9.396515917E0,2.731335003E0,-2.285501416E1,1.309934415E1,2.648404577E1
9.406585917E0,2.320414907E0,-2.262862400E1,1.264551368E1,2.602590951E1
9.416655917E0,1.865410897E0,-2.170039021E1,1.209176832E1,2.491179549E1
9.426725917E0,1.401347796E0,-2.042782793E1,1.100581407E1,2.324624427E1
9.436795917E0,1.290814371E0,-1.910198932E1,9.371330187E0,2.131605093E1
9.446865917E0,1.525653754E0,-1.747103715E1,6.956820717E0,1.886695823E1
9.456935917E0,2.027082317E0,-1.625374625E1,3.820175436E0,1.681924702E1
9.467005917E0,2.575593830E0,-1.565782376E1,1.735330814E0,1.596284754E1
9.477075917E0,2.071942740E0,-1.513754436E1,8.729909049E-1,1.530360445E1
9.487145917E0,1.160627283E0,-1.505503196E1,1.193681594E0,1.514681217E1
9.497215917E0,6.450747710E-1,-1.578980244E1,1.898674391E0,1.591662486E1
9.507285917E0,6.565271276E-1,-1.622259463E1,3.273747870E0,1.656263957E1
9.517355917E0,1.533698353E0,-1.595259594E1,5.760059395E0,1.702985120E1
9.527425917E0,4.602743390E0,-1.477868553E1,7.386907986E0,1.715112831E1
9.537495917E0,9.700588070E0,-1.359118620E1,6.795278521E0,1.802768874E1
9.547565917E0,1.612384802E1,-1.297002479E1,5.598834118E0,2.143704647E1
9.557635917E0,2.179528818E1,-1.267664308E1,5.155622188E0,2.573542902E1
9.567706917E0,2.597620642E1,-1.378074358E1,6.559392486E0,3.012802389E1
9.577776917E0,2.944921863E1,-1.579537249E1,1.075684899E1,3.510641067E1
9.587846917E0,3.361102115E1,-1.756070303E1,1.534042871E1,4.090730725E1
9.597916917E0,3.878712145E1,-1.810380061E1,1.865849906E1,4.669398221E1
9.607986917E0,4.505140730E1,-1.645003728E1,2.097679260E1,5.234748183E1
9.618056917E0,5.296176388E1,-1.395492745E1,2.180825731E1,5.895157776E1
9.628126917E0,6.052174594E1,-1.076804757E1,2.141802817E1,6.509657834E1
9.638196917E0,6.665008637E1,-7.273154499E0,2.086283972E1,7.021674210E1
9.648266917E0,7.028523485E1,-5.649200864E0,1.842240837E1,7.287875437E1
9.658336917E0,7.019164666E1,-5.750057148E0,1.504582728E1,7.201602138E1
9.668406917E0,6.597094864E1,-6.861529813E0,1.254480123E1,6.750273101E1
9.678476917E0,5.853751904E1,-8.701188987E0,1.119579830E1,6.023037211E1
9.688546917E0,4.947156086E1,-1.116824972E1,1.101494158E1,5.189888316E1
9.698616917E0,4.070207990E1,-1.328686669E1,1.118464766E1,4.425264374E1
9.708686917E0,3.332941690E1,-1.518349061E1,1.085576166E1,3.819994737E1
9.718756917E0,2.770369612E1,-1.679640178E1,9.624729218E0,3.379717893E1
9.728826917E0,2.284415237E1,-1.757459719E1,7.342720578E0,2.974285308E1
9.738894125E0,1.945712698E1,-1.850929566E1,6.067741637E0,2.753164188E1
9.748964125E0,1.655974508E1,-1.972127144E1,4.587076652E0,2.615712095E1
9.759034125E0,1.375013691E1,-2.132605848E1,3.115195063E0,2.556504402E1
9.769104125E0,1.127980641E1,-2.353633407E1,1.843514244E0,2.616470139E1
9.779174125E0,9.180042620E0,-2.534440541E1,8.645935723E-1,2.696960493E1
9.789244125E0,7.697554767E0,-2.689290482E1,9.024560478E-1,2.798740978E1
9.799314125E0,6.644762419E0,-2.926872911E1,5.393984811E-1,3.001836642E1
9.809385125E0,5.710810052E0,-3.051553325E1,7.492718616E-1,3.105434799E1
9.819455125E0,5.366538858E0,-3.115781013E1,1.164044981E0,3.163801308E1
9.829525125E0,6.071511921E0,-3.152736819E1,1.807811730E0,3.215752455E1
9.839595125E0,7.194018282E0,-3.138257476E1,2.571113108E0,3.229907924E1
9.849665125E0,8.934654275E0,-3.123315969E1,3.592956144E0,3.268405796E1
9.859735125E0,1.130435887E1,-3.104544535E1,4.656816101E0,3.336606274E1
9.869805125E0,1.322264789E1,-3.097928761E1,6.355643333E0,3.427752734E1
9.879875125E0,1.438636777E1,-3.075941827E1,7.605468721E0,3.479874343E1
9.889945125E0,1.508995270E1,-3.023174214E1,8.593719503E0,3.486426423E1
9.900015125E0,1.500827295E1,-2.875933372E1,9.964783984E0,3.393588739E1
9.910085125E0,1.466776502E1,-2.692137609E1,1.019512803E1,3.230858178E1
9.920155125E0,1.532844309E1,-2.505973957E1,9.468590434E0,3.086431466E1
9.930225125E0,1.673296768E1,-2.259071066E1,9.235356111E0,2.959094824E1
9.940295125E0,1.919448174E1,-2.029577207E1,8.642475341E0,2.924104775E1
9.950365125E0,2.254484977E1,-1.781756537E1,8.283076816E0,2.990560564E1
9.960435125E0,2.584755832E1,-1.512086927E1,7.659613938E0,3.090965293E1
9.970505125E0,2.834589815E1,-1.288816377E1,6.933661065E0,3.190094612E1
9.980575125E0,2.993725297E1,-1.115804282E1,6.408306280E0,3.258538667E1
9.990645125E0,3.019668458E1,-9.931095836E0,6.513885945E0,3.244837645E1