"Time (s)","Linear Acceleration x (m/s^2)","Linear Acceleration y (m/s^2)","Linear Acceleration z (m/s^2)","Absolute acceleration (m/s^2)"
5.689791695E-3,6.631341890E-1,4.385587156E-1,-1.924276279E-1,8.179908872E-1
1.575879171E-2,3.242438954E-1,9.126100302E-2,-2.839004463E-1,4.405248436E-1
2.582879167E-2,4.882594639E-1,-2.871076441E-1,-1.780536369E-1,5.937433798E-1
3.589708335E-2,3.381552985E-1,2.204505551E-1,-6.750610471E-2,4.092731696E-1
4.596608336E-2,9.764557779E-2,4.296054590E-1,1.363059059E-2,4.407735272E-1
5.603608332E-2,2.753138101E-1,5.850022316E-2,6.263420463E-2,2.883453030E-1
6.610508333E-2,8.360845953E-2,1.888446003E-1,1.418212190E-1,2.505312670E-1
7.617508335E-2,-3.032667169E-1,-1.570468569E-1,-4.065311766E-1,5.309444551E-1
8.624408336E-2,-4.858527499E-1,6.255111569E-1,-5.714649772E-1,9.766725768E-1
9.631308337E-2,-4.546490836E-1,-4.524271417E-1,-1.169026809E0,1.333424084E0
1.063830833E-1,-6.707946262E-1,1.523784399E-3,-6.038964857E-1,9.025844658E-1
1.164520833E-1,-6.671383622E-1,5.202220988E-1,-9.933893144E-2,8.518056408E-1
1.265220834E-1,-3.162700474E-2,3.616689992E-1,4.039772590E-1,5.431411954E-1
1.365910834E-1,-2.926794559E-2,1.463967383E0,9.141841006E-1,1.726206732E0
1.466600833E-1,-1.311720505E-1,1.988077880E0,1.877090710E-1,2.001223241E0
1.567300833E-1,-1.919877711E-1,7.199419355E-1,-5.191065963E-1,9.081009597E-1
1.667990834E-1,1.195147491E-1,-4.605576950E-1,-5.368317727E-1,7.173461632E-1
1.768690834E-1,1.345020398E-1,-1.616006684E-1,1.514189118E-1,2.591008715E-1
1.869380833E-1,2.397913903E-2,1.058429648E0,5.579161014E-1,1.196711618E0
1.970070833E-1,-3.132368043E-1,1.928961945E0,2.409438034E-1,1.969026510E0
2.070770834E-1,-6.852679467E-1,1.414009942E0,-2.574482274E-1,1.592261242E0
2.171460834E-1,-4.063885045E-1,6.689507067E-2,-5.054532746E-1,6.520042791E-1
2.272160833E-1,3.363026083E-2,-8.911776459E-1,-5.876392528E-1,1.068011462E0
2.372850833E-1,-2.234671336E-1,-1.578894407E0,-2.873106156E-1,1.620306297E0
2.473540833E-1,-6.930728102E-1,-1.625766272E0,4.049014114E-2,1.767796748E0
2.574240834E-1,-7.700680688E-1,-7.207377416E-1,-3.868693292E-2,1.055445120E0
2.674930834E-1,-8.210683608E-1,-5.729756784E-1,-3.854864627E-1,1.072871937E0
2.775630833E-1,-7.689918888E-1,-1.401796862E0,-6.148907860E-1,1.713030545E0
2.876320833E-1,-1.057698454E0,-1.393411371E0,-5.537447709E-1,1.834926303E0
2.977010834E-1,-1.369410304E0,-1.318295699E-1,2.988435906E-1,1.407824957E0
3.077710833E-1,-1.190852126E0,2.416548979E-1,6.358624828E-1,1.371439744E0
3.178400833E-1,-1.081172101E0,-1.140268448E0,1.230130651E-1,1.576159085E0
3.279100833E-1,-1.177949075E0,-5.642551410E-1,7.720540025E-1,1.517239358E0
3.379790834E-1,-1.494546859E0,5.279912943E-1,1.081715527E0,1.918998072E0
3.480480834E-1,-1.089146826E0,-1.337059414E-1,5.646843266E-1,1.234093382E0
3.581180833E-1,-5.836550331E-1,-2.147617990E-1,5.584318259E-1,8.358360677E-1
3.681870833E-1,-6.997897992E-1,-1.211999166E-1,1.559510156E-1,7.271285320E-1
3.782560833E-1,-1.278060131E0,3.930486667E-1,-4.302363735E-1,1.404645254E0
3.883260834E-1,-1.188648018E0,5.162822449E-1,-9.209680402E-1,1.589847036E0
3.983950833E-1,-1.130805022E0,5.337051934E-1,-1.091802705E0,1.659998306E0
4.084650833E-1,-9.731243268E-1,6.993492115E-1,-9.464067905E-1,1.527005595E0
4.185340834E-1,-9.373256260E-1,1.052477767E0,-1.136779561E0,1.810678478E0
4.286030834E-1,-1.125492242E0,1.275403449E0,-1.454511266E0,2.238077248E0
4.386730833E-1,-1.273510413E0,1.147924207E0,-1.530080681E0,2.297978600E0
4.487420833E-1,-1.343378793E0,1.126105907E0,-1.326663650E0,2.198367015E0
4.588120834E-1,-1.233904005E0,1.336621458E0,-1.149843337E0,2.152025956E0
4.688810834E-1,-1.153870826E0,1.751110110E0,-1.083267451E0,2.360354395E0
4.789500834E-1,-8.732340029E-1,1.995676922E0,-1.038498171E0,2.413243140E0
4.890200833E-1,-4.038885275E-1,2.339035950E0,-1.136466588E0,2.631686042E0
4.990890833E-1,2.554323998E-1,3.135261245E0,-1.782660517E0,3.615658627E0
5.091590834E-1,1.170156198E0,3.900171193E0,-2.926447234E0,5.014448552E0
5.192280834E-1,2.242665065E0,4.803981164E0,-3.612503386E0,6.415447165E0
5.292970833E-1,3.274196352E0,5.449231936E0,-4.251897587E0,7.648079728E0
5.393670833E-1,4.290926874E0,4.426187882E0,-5.296499155E0,8.127490136E0
5.494360834E-1,5.361915464E0,3.565991124E0,-5.698678833E0,8.598916826E0
5.595060834E-1,6.749891848E0,2.227144216E0,-6.615953772E0,9.710409653E0
5.695750833E-1,8.129158219E0,1.307321060E0,-8.379503249E0,1.174769664E1
5.796440833E-1,9.534478029E0,4.290230763E-1,-9.906450992E0,1.375602062E1
5.897140834E-1,1.115025433E1,-2.106344833E0,-1.096229442E1,1.577772985E1
5.997830834E-1,1.260090059E1,-5.593297974E0,-1.135913559E1,1.786330426E1
6.098530833E-1,1.306240612E1,-7.561586537E0,-1.035826184E1,1.830567215E1
6.199220833E-1,1.350720030E1,-9.205182724E0,-8.956393054E0,1.863858432E1
6.299910833E-1,1.406972467E1,-9.529085142E0,-8.062637955E0,1.880868806E1
6.400610834E-1,1.677446186E1,-1.596388691E1,-8.493801112E0,2.466521667E1
6.501300833E-1,1.765602785E1,-1.600982731E1,-7.176204740E0,2.489071724E1
6.601990833E-1,1.838417577E1,-1.531803855E1,-7.598891773E0,2.510703846E1
6.702690833E-1,1.943962743E1,-1.648300155E1,-8.765219507E0,2.695213401E1
6.803380834E-1,1.995948232E1,-1.619828775E1,-8.183451955E0,2.697655179E1
6.904080833E-1,2.170110825E1,-1.618903629E1,-7.659260767E0,2.813693784E1
7.004770833E-1,2.405705903E1,-1.760237848E1,-7.392745847E0,3.071218827E1
7.105460833E-1,2.518808595E1,-1.791307613E1,-5.728592019E0,3.143461049E1
7.206160834E-1,2.572413763E1,-1.866790723E1,-3.572529480E0,3.198413644E1
7.306850834E-1,2.549613832E1,-2.040254223E1,-8.672376832E-1,3.266602057E1
7.407550833E-1,2.435237850E1,-2.055198303E1,2.762854127E0,3.198524203E1
7.508240833E-1,2.286828500E1,-1.943078761E1,5.985475405E0,3.059967127E1
7.608930834E-1,2.186669204E1,-1.893635524E1,7.677924494E0,2.992805198E1
7.709630834E-1,2.095412177E1,-1.810995656E1,9.190537788E0,2.918067392E1
7.810320833E-1,1.964573243E1,-1.724488205E1,9.263830297E0,2.773372156E1
7.911020833E-1,1.796581801E1,-1.668175192E1,8.706545622E0,2.601644481E1
8.011710834E-1,1.554027017E1,-1.608071896E1,7.496429259E0,2.358571540E1
8.112400834E-1,1.388845163E1,-1.621921962E1,6.122403163E0,2.221341923E1
8.213100833E-1,1.369101688E1,-1.796622381E1,5.795008203E0,2.331976118E1
8.313790833E-1,1.189264022E1,-1.884602278E1,5.416316205E0,2.293346784E1
8.414490834E-1,1.064549929E1,-2.060295437E1,5.863163348E0,2.392039022E1
8.515180834E-1,9.763371379E0,-2.180001741E1,7.515780619E0,2.504098916E1
8.615870834E-1,1.001847780E1,-2.376408078E1,8.103390709E0,2.703269083E1
8.716570833E-1,1.067969381E1,-2.481181762E1,8.142316793E0,2.821310823E1
8.817260833E-1,1.239515812E1,-2.566268339E1,8.318891596E0,2.968867160E1
8.917960834E-1,1.493199251E1,-2.645159441E1,8.102855689E0,3.143735863E1
9.018650833E-1,1.715101085E1,-2.669870008E1,8.004450558E0,3.272688479E1
9.119340833E-1,1.829241191E1,-2.679063000E1,7.984185278E0,3.340804400E1
9.220040833E-1,1.882540082E1,-2.630970821E1,8.188937228E0,3.337147217E1
9.320730834E-1,2.017624563E1,-2.535589168E1,7.451534337E0,3.324947360E1
9.421420834E-1,2.231189670E1,-2.386009907E1,6.300252659E0,3.326887804E1
9.522120833E-1,2.448105467E1,-2.240049138E1,4.869888639E0,3.353833429E1
9.622810833E-1,2.676415147E1,-2.132651457E1,3.404385193E0,3.439083986E1
9.723510834E-1,2.875924718E1,-2.042021485E1,2.841112677E0,3.538575129E1
9.824200834E-1,3.008463321E1,-2.032096421E1,2.133115726E0,3.636725072E1
9.924890833E-1,3.193723228E1,-1.962609514E1,2.188358465E0,3.754942514E1
1.002559083E0,3.140136303E1,-1.876219943E1,2.359693286E0,3.665561185E1
1.012628083E0,2.914253217E1,-1.915069779E1,2.294896781E0,3.494714521E1
1.022698083E0,2.686736418E1,-1.815571336E1,2.553980182E0,3.252703492E1
1.032767083E0,2.378582072E1,-1.726659042E1,2.309210618E0,2.948275540E1
1.042835917E0,2.093217834E1,-1.646970615E1,2.519442433E0,2.675359604E1
1.052905917E0,1.838946048E1,-1.581912271E1,2.450050017E0,2.438072282E1
1.062974917E0,1.571265661E1,-1.545737185E1,3.183663912E0,2.227001658E1
1.073044917E0,1.256232885E1,-1.642372949E1,4.156910738E0,2.109101475E1
1.083113917E0,7.803323296E0,-1.851418393E1,6.242040119E0,2.103877197E1
1.093182917E0,1.440110743E0,-2.083830013E1,1.033056708E1,2.330298881E1
1.103252917E0,-5.341432668E0,-2.338837612E1,1.483695187E1,2.820783900E1
1.113321917E0,-1.151401897E1,-2.508484283E1,1.823525186E1,3.308090663E1
1.123390917E0,-1.435646745E1,-2.739186411E1,1.952367999E1,3.657316580E1
1.133460917E0,-1.402970633E1,-2.980580523E1,1.733357730E1,3.722460996E1
1.143529917E0,-1.245265964E1,-3.016583467E1,1.579142445E1,3.625486725E1
1.153599917E0,-9.869131722E0,-3.089640216E1,1.544225680E1,3.592284402E1
1.163668917E0,-8.862754573E0,-3.190885457E1,1.661046149E1,3.704903305E1
1.173737917E0,-9.950888661E0,-3.310418683E1,1.916909781E1,3.952672111E1
1.183807917E0,-1.252540251E1,-3.280219686E1,2.183974807E1,4.135026508E1
1.193876917E0,-1.480999971E1,-3.178103678E1,2.280267690E1,4.182502198E1
1.203945917E0,-1.642769858E1,-3.074687249E1,2.380898739E1,4.221501308E1
1.214015917E0,-1.677015597E1,-2.983782926E1,2.469595621E1,4.220692407E1
1.224084917E0,-1.465697340E1,-2.892144894E1,2.344565545E1,4.001219611E1
1.234154917E0,-1.070144428E1,-2.756362957E1,2.026089460E1,3.584380609E1
1.244223917E0,-6.024704960E0,-2.622807173E1,1.695901519E1,3.180907123E1
1.254292917E0,-1.056662035E0,-2.597568017E1,1.499781930E1,3.001311511E1
1.264362917E0,3.752841824E0,-2.697670478E1,1.503390480E1,3.111020277E1
1.274431917E0,8.446373761E0,-2.877144915E1,1.666180122E1,3.430383558E1
1.284501917E0,1.258741808E1,-3.105069615E1,1.902139013E1,3.852793931E1
1.294570917E0,1.611000415E1,-3.318882177E1,2.107890369E1,4.248941404E1
1.304639917E0,1.943042391E1,-3.507958912E1,2.279877564E1,4.612920026E1
1.314709917E0,2.243389535E1,-3.587150326E1,2.401901236E1,4.865138602E1
1.324778917E0,2.462057391E1,-3.597906163E1,2.385730411E1,4.969744957E1
1.334847917E0,2.622535160E1,-3.588866835E1,2.283409048E1,4.997160464E1
1.344917917E0,2.665246030E1,-3.533467507E1,2.166794518E1,4.927872513E1
1.354986917E0,2.524115294E1,-3.445361896E1,2.050407094E1,4.737704704E1
1.365056917E0,2.193485888E1,-3.332954086E1,1.993955034E1,4.460473064E1
1.375125917E0,1.680888325E1,-3.211314927E1,1.942776811E1,4.112458007E1
1.385194917E0,1.117471674E1,-3.108456089E1,1.845087379E1,3.783594803E1
1.395264917E0,6.365972439E0,-3.100369623E1,1.821426972E1,3.651731653E1
1.405333917E0,3.548098059E0,-3.075905341E1,1.811830404E1,3.587452171E1
1.415403917E0,2.079193872E0,-3.065494958E1,1.853959359E1,3.588544986E1
1.425472917E0,1.391671824E0,-2.954140115E1,1.957754688E1,3.546704772E1
1.435541917E0,1.269667330E0,-2.703737549E1,1.899542264E1,3.306747359E1
1.445611917E0,1.768951135E0,-2.448782574E1,1.664718668E1,2.966330430E1
1.455680917E0,2.633486527E0,-2.142525533E1,1.272140703E1,2.505615720E1
1.465749917E0,3.988312706E0,-1.875754154E1,8.360606802E0,2.092012784E1
1.475819917E0,5.521203559E0,-1.683614531E1,4.701958652E0,1.833160911E1
1.485888917E0,7.762395710E0,-1.546086030E1,2.253995653E0,1.744630290E1
1.495958917E0,1.121396326E1,-1.441224638E1,4.591485161E-1,1.826681786E1
1.506027917E0,1.441390582E1,-1.315185448E1,1.594374910E-1,1.951300534E1
1.516096917E0,1.768287359E1,-1.197519823E1,1.016485670E0,2.138042642E1
1.526166917E0,2.167962558E1,-1.162782450E1,2.933291692E0,2.477532377E1
1.536235917E0,2.614751580E1,-1.220958036E1,6.759696459E0,2.963882473E1
1.546305917E0,3.030570708E1,-1.276225217E1,1.129930220E1,3.477046437E1
1.556374917E0,3.433460941E1,-1.298867273E1,1.711027681E1,4.050101968E1
1.566443917E0,3.961711734E1,-1.346587803E1,2.344014737E1,4.796130072E1
1.576513917E0,4.669890475E1,-1.303866525E1,2.797684763E1,5.597766072E1
1.586582917E0,5.511619622E1,-1.133712667E1,3.004499377E1,6.378892676E1
1.596652917E0,6.343497379E1,-8.761494246E0,3.048618022E1,7.092366929E1
1.606721917E0,6.891218699E1,-6.757256416E0,2.916377861E1,7.513372088E1
1.616790917E0,6.935419440E1,-6.106676491E0,2.766821054E1,7.491879372E1
1.626860917E0,6.663841065E1,-8.163601828E0,2.525539442E1,7.172975056E1
1.636929917E0,6.194746552E1,-1.199589503E1,2.296374664E1,6.714703003E1
1.646999917E0,5.593300547E1,-1.652005067E1,2.181973656E1,6.226968828E1
1.657068917E0,4.920314092E1,-2.027491154E1,2.086182464E1,5.715974844E1
1.667137917E0,4.248310905E1,-2.219458051E1,1.970310765E1,5.182302972E1
1.677207917E0,3.643448722E1,-2.246071770E1,1.748155863E1,4.623376029E1
1.687276917E0,3.060492548E1,-2.192132843E1,1.456109661E1,4.036374162E1
1.697345917E0,2.541166476E1,-2.152758628E1,1.170583571E1,3.530178844E1
1.707415917E0,2.139205718E1,-2.187278952E1,9.794680295E0,3.212436449E1
1.717484917E0,1.811300647E1,-2.283819991E1,8.443228544E0,3.034719899E1
1.727554917E0,1.535240264E1,-2.437799164E1,7.196031479E0,2.969453843E1
1.737623917E0,1.358642306E1,-2.667177482E1,5.952622240E0,3.051898057E1
1.747692917E0,1.193539740E1,-2.872065556E1,4.568848835E0,3.143571451E1
1.757762917E0,1.069681445E1,-3.069190632E1,3.227533232E0,3.266239311E1
1.767831917E0,9.568263826E0,-3.214594981E1,2.466246219E0,3.363028594E1
1.777901917E0,7.897192158E0,-3.268203891E1,2.090599451E0,3.368756325E1
1.787970917E0,6.568532268E0,-3.317932823E1,2.628646202E0,3.392525931E1
1.798039917E0,5.680149592E0,-3.336491418E1,3.146596073E0,3.399092032E1
1.808109917E0,5.158393183E0,-3.297236954E1,3.606014146E0,3.356768552E1
1.818178917E0,5.303896467E0,-3.201828170E1,3.769237709E0,3.267275369E1
1.828247917E0,7.622530897E0,-3.311548365E1,4.332940580E0,3.425657030E1
1.838317917E0,7.023909330E0,-2.763326524E1,4.887255162E0,2.892780519E1
1.848386917E0,8.267901537E0,-2.565600587E1,5.331404693E0,2.747749459E1
1.858456917E0,1.116188561E1,-2.465804754E1,7.115711201E0,2.798643145E1
1.868525917E0,1.373847639E1,-2.124564290E1,6.600056947E0,2.614734838E1
1.878594917E0,1.841397786E1,-2.199413094E1,6.495694088E0,2.941105945E1
1.888664917E0,2.128710199E1,-1.987444510E1,6.692068732E0,2.988173461E1
1.898733917E0,2.392351798E1,-1.865609819E1,6.668910250E0,3.106218080E1
1.908803917E0,2.703194693E1,-1.779800292E1,6.503339907E0,3.301194470E1
1.918872917E0,3.029130422E1,-1.699681510E1,6.013049705E0,3.525069647E1
1.928941917E0,3.311684722E1,-1.635801380E1,5.258795139E0,3.730904866E1
1.939011917E0,3.512236033E1,-1.597048959E1,4.581440814E0,3.885391014E1
1.949080917E0,3.539373897E1,-1.559142746E1,4.748356601E0,3.896609114E1
1.959150917E0,3.356302954E1,-1.519985346E1,4.983967817E0,3.718000043E1
1.969219917E0,3.081359156E1,-1.474762980E1,5.613919934E0,3.461915808E1
1.979288917E0,2.793297480E1,-1.399869503E1,5.411081192E0,3.170953080E1
1.989358917E0,2.509443460E1,-1.381313247E1,5.046497941E0,2.908608634E1
1.999427917E0,2.188824020E1,-1.411411907E1,4.644183776E0,2.645509137E1
2.009496917E0,1.762365533E1,-1.483162155E1,3.861606467E0,2.335556099E1
2.019566917E0,1.196505916E1,-1.694482399E1,2.781070250E0,2.092902417E1
2.029635917E0,4.530717387E0,-2.095189983E1,3.202652160E0,2.167409715E1
2.039706208E0,-2.692180878E0,-2.689263117E1,6.440986369E0,2.778394779E1
2.049775208E0,-9.935687070E0,-3.325657697E1,9.320229031E0,3.593862071E1
2.059844208E0,-1.687274654E1,-3.845023997E1,1.315609255E1,4.400219654E1
2.069914208E0,-2.172119461E1,-4.326959697E1,1.605513154E1,5.100819117E1
2.079983208E0,-2.626114124E1,-4.515907559E1,1.831924010E1,5.535868681E1
2.090053208E0,-2.956196932E1,-4.573120460E1,1.880860995E1,5.761090966E1
2.100122208E0,-3.184035327E1,-4.515132920E1,1.654439029E1,5.767293538E1
2.110191208E0,-3.243526770E1,-4.363469712E1,1.414108409E1,5.617832004E1
2.120261208E0,-3.083170623E1,-4.229040353E1,1.368199697E1,5.409500329E1
2.130330208E0,-2.905816620E1,-3.974743541E1,1.183460661E1,5.063885423E1
2.140399208E0,-2.583205852E1,-3.711767122E1,1.052958876E1,4.643155181E1
2.150469208E0,-2.061188658E1,-3.463477505E1,8.572946684E0,4.120573900E1
2.160538208E0,-1.386671168E1,-3.234655608E1,6.851907635E0,3.585434453E1
2.170607208E0,-6.719175255E0,-3.047420513E1,6.475497805E0,3.187093607E1
2.180677208E0,-2.930712193E-1,-2.982044899E1,6.828491290E0,3.059368174E1
2.190746208E0,6.106589953E0,-3.060385427E1,8.586765994E0,3.236694127E1
2.200816208E0,1.320925192E1,-3.212640140E1,1.333569562E1,3.720793976E1
2.210885208E0,1.994722890E1,-3.351347322E1,1.908048560E1,4.341785069E1
2.220954208E0,2.482075451E1,-3.421640443E1,2.374985567E1,4.848595499E1
2.231024208E0,2.738308393E1,-3.423005651E1,2.522184777E1,5.057342839E1
2.241093208E0,2.817073428E1,-3.318341193E1,2.526570423E1,5.032976165E1
2.251163208E0,2.758700674E1,-3.123397128E1,2.360492424E1,4.789359405E1
2.261232208E0,2.649033104E1,-2.983996232E1,2.074137200E1,4.497071828E1
2.271301208E0,2.543467473E1,-2.901433781E1,1.816544663E1,4.264666374E1
2.281371208E0,2.503559290E1,-2.896323315E1,1.652987984E1,4.169996060E1
2.291440208E0,2.313577874E1,-2.900555997E1,1.635493583E1,4.054714162E1
2.301510208E0,1.951202064E1,-2.886001810E1,1.697305318E1,3.875182742E1
2.311579208E0,1.497588873E1,-2.823159678E1,1.692400674E1,3.616244328E1
2.321648208E0,9.913183476E0,-2.744069771E1,1.600564656E1,3.327827849E1
2.331718208E0,5.179788145E0,-2.704549844E1,1.491828781E1,3.131843710E1
2.341787208E0,1.726120280E0,-2.639957524E1,1.363318207E1,2.976206843E1
2.351856208E0,-4.374255252E-1,-2.566598356E1,1.246749870E1,2.853721390E1
2.361926208E0,-1.648990828E0,-2.470438088E1,1.125805711E1,2.719870319E1
2.371995208E0,-1.750989658E0,-2.355892537E1,9.331663846E0,2.540017479E1
2.382065208E0,-1.070272014E0,-2.263594706E1,6.831132478E0,2.366845902E1
2.392134208E0,9.227678132E-1,-2.222724305E1,4.448743809E0,2.268684984E1
2.402203208E0,2.766387307E0,-2.194455357E1,3.383995367E0,2.237560624E1
2.412273208E0,3.575220954E0,-2.163060486E1,4.244081906E0,2.233108826E1
2.422342208E0,3.918147873E0,-2.098657850E1,6.079519683E0,2.219794854E1
2.432412208E0,4.333631721E0,-2.008064833E1,7.712583865E0,2.194303422E1
2.442481208E0,5.598152917E0,-1.862819762E1,8.135745692E0,2.108410351E1
2.452550208E0,7.749288592E0,-1.744549768E1,7.330192333E0,2.044819265E1
2.462620208E0,1.030431893E1,-1.674942876E1,6.333263115E0,2.065992677E1
2.472689208E0,1.358723348E1,-1.600030454E1,6.803767508E0,2.206612588E1
2.482759208E0,1.815966023E1,-1.505286381E1,7.809218459E0,2.484644565E1
2.492828208E0,2.325494968E1,-1.496170105E1,8.696738087E0,2.898755657E1
2.502897208E0,2.815987249E1,-1.486312167E1,1.085816837E1,3.364209602E1
2.512967208E0,3.287100221E1,-1.417717310E1,1.472386438E1,3.870771507E1
2.523036208E0,3.810567992E1,-1.363503564E1,2.061855708E1,4.542116176E1
2.533105208E0,4.495187366E1,-1.272804362E1,2.607944954E1,5.350524954E1
2.543175208E0,5.371769660E1,-1.118100601E1,2.879927020E1,6.196776410E1
2.553244208E0,6.274750495E1,-7.637370545E0,2.858819975E1,6.937480791E1
2.563314208E0,7.031604734E1,-4.249285635E0,2.640597443E1,7.523083429E1
2.573383208E0,7.268381417E1,-3.065607458E0,2.468363262E1,7.682197935E1
2.583452208E0,7.197958955E1,-4.311139237E0,2.477061346E1,7.624454423E1
2.593522208E0,6.879334351E1,-7.068193218E0,2.527495920E1,7.362952552E1
2.603591208E0,6.384020455E1,-1.049812490E1,2.468058271E1,6.924531397E1
2.613661208E0,5.797964789E1,-1.433081103E1,2.349686770E1,6.418032803E1
2.623730208E0,5.090048003E1,-1.746524490E1,2.252249704E1,5.833657960E1
2.633799208E0,4.305392827E1,-1.913629844E1,2.055585856E1,5.140410469E1
2.643869208E0,3.554475384E1,-1.993056200E1,1.639079213E1,4.392396718E1
2.653938208E0,2.908826533E1,-2.090409767E1,1.139500826E1,3.758928960E1
2.664008208E0,2.336522583E1,-2.224653653E1,7.487456707E0,3.311954367E1
2.674077208E0,1.843755266E1,-2.363844750E1,5.013643606E0,3.039500240E1
2.684146208E0,1.406592164E1,-2.491406671E1,3.585923697E0,2.883434966E1
2.694216208E0,1.062059015E1,-2.640347650E1,3.276172711E0,2.864740501E1
2.704285208E0,8.201526868E0,-2.781262975E1,3.518695920E0,2.920939296E1
2.714355208E0,6.492305042E0,-2.903797693E1,3.346588390E0,2.994250796E1
2.724424208E0,6.005872833E0,-3.009250591E1,3.313025372E0,3.086430879E1
2.734493208E0,5.953397580E0,-3.069433876E1,3.554931116E0,3.146780752E1
2.744563208E0,5.814843712E0,-3.101257464E1,4.118804433E0,3.182069678E1
2.754632208E0,5.438412833E0,-3.126884875E1,5.906166111E0,3.228312306E1
2.764702208E0,5.033540511E0,-3.129971503E1,7.947747184E0,3.268295238E1
2.774771208E0,5.102879718E0,-3.087871083E1,9.022977637E0,3.257220117E1
2.784840208E0,6.114767284E0,-2.978997565E1,9.937793237E0,3.199363628E1
2.794910208E0,8.337755299E0,-2.801269106E1,1.132406867E1,3.134427468E1
2.804979208E0,1.184253894E1,-2.633280705E1,1.230885205E1,3.138742255E1
2.815048208E0,1.581767027E1,-2.453459411E1,1.307049165E1,3.198410156E1
2.825118208E0,1.982840178E1,-2.266386400E1,1.267216528E1,3.267108847E1
2.835187208E0,2.304223733E1,-2.100272149E1,1.168413553E1,3.329531550E1
2.845257208E0,2.548526952E1,-1.952215737E1,1.134330601E1,3.404826254E1
2.855326208E0,2.764783416E1,-1.837987807E1,1.182945872E1,3.524427251E1
2.865395208E0,2.937265285E1,-1.748881035E1,1.183872305E1,3.617687916E1
2.875465208E0,3.011799509E1,-1.678153465E1,1.113410900E1,3.623095247E1
2.885534208E0,2.990739943E1,-1.603368162E1,1.000439770E1,3.537823427E1
2.895604208E0,2.895361097E1,-1.528198579E1,8.861305633E0,3.391715518E1
2.905673208E0,2.749386761E1,-1.445303071E1,7.801867924E0,3.202611428E1
2.915742208E0,2.583954296E1,-1.358378947E1,6.947138312E0,3.000773313E1
2.925812208E0,2.423589495E1,-1.252548437E1,6.121687464E0,2.795963913E1
2.935881208E0,2.275453794E1,-1.186312582E1,5.188778239E0,2.618064497E1
2.945951208E0,2.064430120E1,-1.203720795E1,3.677277963E0,2.417858393E1
2.956020208E0,1.696798832E1,-1.342716596E1,1.972728939E0,2.172770289E1
2.966089208E0,1.037860898E1,-1.697187789E1,1.680877741E0,1.996460652E1
2.976159208E0,1.639006122E0,-2.021020625E1,3.907054828E0,2.064954855E1
2.986228208E0,-8.003074708E0,-2.219051318E1,6.376169983E0,2.443611311E1
2.996297208E0,-1.504778375E1,-2.544129144E1,6.564824549E0,3.027857373E1
3.006367208E0,-1.904148584E1,-2.972177840E1,2.208406667E0,3.536720733E1
3.016436208E0,-2.087677714E1,-3.408543616E1,-2.795840317E0,4.006836040E1
3.026506208E0,-2.163960490E1,-3.827050124E1,-5.864677777E0,4.435423554E1
3.036575208E0,-2.328499501E1,-4.033908475E1,-4.437037976E0,4.678803327E1
3.046647708E0,-2.599999523E1,-4.235079825E1,3.941315711E-2,4.969498383E1
3.056717708E0,-2.959440967E1,-4.275627693E1,5.257515768E0,5.226442167E1
3.066786708E0,-3.188867232E1,-4.138343021E1,9.619870766E0,5.312266590E1
3.076856708E0,-3.241474631E1,-3.864893771E1,1.205232300E1,5.186245901E1
3.086925708E0,-3.020688914E1,-3.545247542E1,1.190438494E1,4.807336628E1
3.096994708E0,-2.432328042E1,-3.237348368E1,9.283447121E0,4.154331241E1
3.107064708E0,-1.669729498E1,-2.885538008E1,6.323442131E0,3.393255870E1
3.117133708E0,-8.590236316E0,-2.604827452E1,4.442936647E0,2.778568789E1
3.127202708E0,-1.526942480E0,-2.429334501E1,4.160301538E0,2.469425589E1
3.137272708E0,4.037207708E0,-2.399710168E1,5.384757028E0,2.492299226E1
3.147341708E0,8.827750216E0,-2.516321891E1,7.974001767E0,2.783345943E1
3.157411708E0,1.278701863E1,-2.693437795E1,1.235932755E1,3.227571128E1
3.167480708E0,1.590667424E1,-2.848592493E1,1.701338143E1,3.679572465E1
3.177549708E0,1.784380183E1,-2.955979649E1,2.023590360E1,4.002092736E1
3.187619708E0,1.899329893E1,-3.033849359E1,2.280977542E1,4.244355608E1
3.197688708E0,1.873859071E1,-3.006666823E1,2.420348266E1,4.290626869E1
3.207758708E0,1.805501846E1,-2.921892487E1,2.385808529E1,4.182030005E1
3.217827708E0,1.718168885E1,-2.880444616E1,2.207767829E1,4.015383455E1
3.227896708E0,1.573598934E1,-2.822339664E1,1.990009099E1,3.794990250E1
3.237966708E0,1.407139697E1,-2.736932426E1,1.792378121E1,3.561384641E1
3.248035708E0,1.226714269E1,-2.690600025E1,1.611876913E1,3.367833662E1
3.258105708E0,1.035518620E1,-2.639157391E1,1.456459324E1,3.187275374E1
3.268174708E0,8.569321995E0,-2.601408936E1,1.339356668E1,3.048858398E1
3.278243708E0,6.793883375E0,-2.558158485E1,1.212781874E1,2.911457234E1
3.288313708E0,5.361297998E0,-2.515468198E1,1.103722181E1,2.798788679E1
3.298382708E0,4.020444326E0,-2.492545241E1,1.037320849E1,2.729552353E1
3.308451708E0,2.650388489E0,-2.469786241E1,9.829410417E0,2.671378438E1
3.318521708E0,1.440937539E0,-2.438985214E1,9.879075497E0,2.635407598E1
3.328590708E0,7.899605888E-1,-2.429511087E1,1.037513807E1,2.642952780E1
3.338660708E0,3.753228325E-1,-2.397250595E1,1.181966697E1,2.673062730E1
3.348729708E0,2.164235777E-1,-2.305329558E1,1.337695591E1,2.665415964E1
3.358798708E0,5.738936913E-1,-2.175820046E1,1.365662005E1,2.569536753E1
3.368868708E0,1.875475709E0,-2.063131337E1,1.267363410E1,2.428558218E1
3.378937708E0,3.848556651E0,-1.915768872E1,1.071362286E1,2.228475130E1
3.389007708E0,5.671972260E0,-1.791471101E1,8.311945689E0,2.054742273E1
3.399076708E0,6.833650289E0,-1.707370949E1,6.606673071E0,1.954119907E1
3.409145708E0,7.261179986E0,-1.643648812E1,5.021508695E0,1.865739601E1
3.419215708E0,7.902782680E0,-1.637948712E1,4.411864835E0,1.871379501E1
3.429284708E0,9.004836650E0,-1.598569819E1,7.113641871E0,1.967825019E1
3.439353708E0,1.190068833E1,-1.522834694E1,1.106779807E1,2.227162067E1
3.449423708E0,1.824984301E1,-1.499718663E1,1.391337129E1,2.741449028E1
3.459492708E0,2.665385661E1,-1.569238081E1,1.459072328E1,3.419894872E1
3.469562708E0,3.476174149E1,-1.783376917E1,1.531961847E1,4.196561336E1
3.479631708E0,4.082373473E1,-1.893230312E1,1.800898099E1,4.846991660E1
3.489700708E0,4.455579263E1,-1.749940199E1,2.162810459E1,5.252830318E1
3.499770708E0,4.852996735E1,-1.448182941E1,2.562126172E1,5.675676318E1
3.509839708E0,5.435163301E1,-1.161065240E1,2.782256767E1,6.215305730E1
3.519909708E0,5.976587404E1,-7.710778245E0,2.836300477E1,6.660237113E1
3.529978708E0,6.409120447E1,-3.287188865E0,2.865304070E1,7.028146869E1
3.540047708E0,6.756224733E1,-4.966075337E-1,2.669710262E1,7.264736177E1
3.550117708E0,6.925210201E1,5.434513324E-1,2.362364937E1,7.317257534E1
3.560186708E0,6.745623030E1,-7.845209241E-3,2.062158126E1,7.053788118E1
3.570256708E0,6.146217001E1,-1.148606578E0,1.829859709E1,6.413857104E1
3.580325708E0,5.240284491E1,-2.592338501E0,1.746386028E1,5.529705950E1
3.590394708E0,4.276858882E1,-4.299713777E0,1.744700159E1,4.639005920E1
3.600464708E0,3.432391368E1,-6.403981095E0,1.622433476E1,3.850157221E1
3.610533708E0,2.821292311E1,-9.432599652E0,1.432203086E1,3.301611023E1
3.620603708E0,2.376472163E1,-1.323711390E1,1.243944610E1,2.991192067E1
3.630672708E0,2.012911941E1,-1.734509514E1,1.028252870E1,2.849147539E1
3.640741708E0,1.714999811E1,-2.127543329E1,7.955651450E0,2.846153346E1
3.650811708E0,1.487527686E1,-2.516274646E1,5.644679797E0,2.977079241E1
3.660880708E0,1.228782078E1,-2.834568063E1,4.308676097E0,3.119347432E1
3.670950708E0,9.442233524E0,-3.053905309E1,4.313096007E0,3.225511331E1
3.681019708E0,7.131547215E0,-3.214099371E1,5.529682606E0,3.338382590E1
3.691088708E0,5.726194076E0,-3.276692411E1,6.619592494E0,3.391577242E1
3.701158708E0,5.589182703E0,-3.230106709E1,7.596116100E0,3.364964900E1
3.711227708E0,6.632586177E0,-3.156251229E1,8.341092889E0,3.331301866E1
3.721297708E0,8.112413548E0,-3.087535453E1,8.394763312E0,3.300864768E1
3.731366708E0,9.817998991E0,-2.999543043E1,8.399256313E0,3.265986004E1
3.741435708E0,1.165749094E1,-2.944441456E1,8.851661235E0,3.288194870E1
3.751505708E0,1.335874535E1,-2.880255634E1,9.663756459E0,3.318782183E1
3.761574708E0,1.472534723E1,-2.762698299E1,1.052020398E1,3.302666698E1
3.771643708E0,1.608441206E1,-2.647594923E1,1.055255195E1,3.272675590E1
3.781713708E0,1.693383708E1,-2.511046767E1,1.094092284E1,3.220239459E1
3.791782708E0,1.767770816E1,-2.412155615E1,1.193576461E1,3.219958561E1
3.801852708E0,1.857613635E1,-2.333289774E1,1.277016696E1,3.244339875E1
3.811921708E0,1.960771851E1,-2.232524005E1,1.287425441E1,3.238248593E1
3.821990708E0,2.050926327E1,-2.093591588E1,1.261095312E1,3.190577679E1
3.832060708E0,2.168986289E1,-1.903771322E1,1.231836196E1,3.137876221E1
3.842129708E0,2.378043193E1,-1.766614353E1,1.054789990E1,3.144614066E1
3.852199708E0,2.591390785E1,-1.693954513E1,8.134866271E0,3.201023052E1
3.862268708E0,2.712561465E1,-1.595195274E1,6.476008852E0,3.212790776E1
3.872337708E0,2.736793262E1,-1.494719059E1,5.488557969E0,3.166301488E1
3.882407708E0,2.667065683E1,-1.436274034E1,4.997994118E0,3.070166431E1
3.892476708E0,2.537950274E1,-1.422671773E1,5.587628514E0,2.962668137E1
3.902546708E0,2.337797276E1,-1.426576076E1,6.293353529E0,2.810067328E1
3.912615708E0,2.024669990E1,-1.477960004E1,6.986108251E0,2.602251222E1
3.922684708E0,1.620953078E1,-1.569467292E1,7.340467061E0,2.372665385E1
3.932754708E0,1.056664842E1,-1.634474764E1,7.320588866E0,2.079413032E1
3.942823708E0,3.975973912E0,-1.772233528E1,6.450278764E0,1.927422196E1
3.952893708E0,-3.169058737E0,-2.074076623E1,3.696479927E0,2.130460704E1
3.962962708E0,-1.045026544E1,-2.489559185E1,7.233099318E-1,2.700965973E1
3.973031708E0,-1.685868983E1,-2.956279962E1,-9.566850261E-1,3.404540778E1
3.983101708E0,-2.266972291E1,-3.302444251E1,8.857508451E-3,4.005658770E1
3.993170708E0,-2.705208708E1,-3.623645372E1,4.844600601E0,4.547929363E1
4.003239708E0,-3.113906161E1,-3.874169560E1,8.986002184E0,5.051047784E1
4.013309708E0,-3.576242229E1,-3.918773525E1,1.140564785E1,5.426525817E1
4.023378708E0,-3.904960530E1,-3.820238819E1,1.304780445E1,5.616528589E1
4.033448708E0,-3.960060948E1,-3.650048123E1,1.304735188E1,5.541413892E1
4.043513542E0,-3.698758470E1,-3.451016855E1,1.133750323E1,5.184179911E1
4.053582542E0,-3.203216767E1,-3.267307162E1,9.129334981E0,4.665762673E1
4.063652542E0,-2.570323968E1,-3.056079537E1,6.945790529E0,4.053224334E1
4.073721542E0,-1.877471949E1,-2.846500827E1,5.077496370E0,3.447503092E1
4.083790542E0,-1.186283579E1,-2.639497231E1,4.029648428E0,2.921745202E1
4.093860542E0,-5.214961486E0,-2.493869519E1,3.686980833E0,2.574350731E1
4.103929542E0,2.215925163E-1,-2.417178140E1,4.009239306E0,2.450302265E1
4.113999542E0,5.424613404E0,-2.429979332E1,5.594368014E0,2.551868608E1
4.124068542E0,1.136266964E1,-2.518063192E1,8.029057395E0,2.876873734E1
4.134137542E0,1.767550376E1,-2.652125813E1,1.194137559E1,3.403523200E1
4.144207542E0,2.263968460E1,-2.721624415E1,1.641193683E1,3.902090382E1
4.154276542E0,2.591497672E1,-2.739688570E1,2.014656282E1,4.275581080E1
4.164346542E0,2.641945577E1,-2.683343630E1,2.213420918E1,4.368002018E1
4.174415542E0,2.492397190E1,-2.537126518E1,2.263680543E1,4.215839693E1
4.184484542E0,2.289588386E1,-2.350184719E1,2.180089683E1,3.939336774E1
4.194554542E0,2.087941541E1,-2.179412108E1,1.969238385E1,3.603780908E1
4.204623542E0,1.910907147E1,-2.067926755E1,1.761558149E1,3.321291059E1
4.214693542E0,1.735091780E1,-1.969743585E1,1.577000143E1,3.062247985E1
4.224762542E0,1.572765823E1,-1.947058025E1,1.461592478E1,2.898427135E1
4.234831542E0,1.415463443E1,-1.952372559E1,1.383447949E1,2.780148125E1
4.244901542E0,1.269904610E1,-1.974030763E1,1.325883748E1,2.695815811E1
4.254970542E0,1.088038428E1,-2.000706229E1,1.284314372E1,2.614596803E1
4.265040542E0,8.611274598E0,-2.019938657E1,1.204000760E1,2.504258475E1
4.275109542E0,6.232947114E0,-2.048199653E1,1.150554285E1,2.430512966E1
4.285178542E0,3.951967583E0,-2.067421556E1,1.207182113E1,2.426458535E1
4.295248542E0,2.082291142E0,-2.050749273E1,1.278631814E1,2.425660994E1
4.305317542E0,7.830298841E-1,-2.022448749E1,1.328250116E1,2.420883862E1
4.315386542E0,3.717367351E-1,-1.966285307E1,1.305959478E1,2.360760460E1
4.325456542E0,8.118759531E-1,-1.895348524E1,1.184872295E1,2.236707359E1
4.335525542E0,1.847179279E0,-1.804171370E1,1.004588019E1,2.073246761E1
4.345595542E0,2.845258060E0,-1.702183182E1,8.035607446E0,1.903704912E1
4.355664542E0,3.582777895E0,-1.598146481E1,6.136092079E0,1.748985823E1
4.365733542E0,3.827643499E0,-1.516508592E1,4.646230594E0,1.631619270E1
4.375803542E0,3.476971943E0,-1.472727097E1,3.963036947E0,1.564249040E1
4.385872542E0,2.928268057E0,-1.391677086E1,4.195362028E0,1.482741810E1
4.395942542E0,2.671047286E0,-1.325321246E1,4.946780110E0,1.439627617E1
4.406011542E0,2.934827464E0,-1.199532084E1,5.484930357E0,1.351241634E1
4.416080542E0,4.601036587E0,-1.094578188E1,5.505090387E0,1.308761624E1
4.426150542E0,7.604734896E0,-1.051460352E1,5.207799232E0,1.398249094E1
4.436219542E0,1.189601173E1,-1.029127730E1,5.637187759E0,1.670937968E1
4.446289542E0,1.693812776E1,-9.580413170E0,6.443897113E0,2.049898287E1
4.456358542E0,2.184272314E1,-9.120894526E0,7.967437098E0,2.497549449E1
4.466427542E0,2.675113557E1,-9.223589759E0,9.952720009E0,2.999590802E1
4.476497542E0,3.168424197E1,-9.207111720E0,1.206224924E1,3.513061275E1
4.486566542E0,3.729958277E1,-8.613343343E0,1.524926009E1,4.120665592E1
4.496636542E0,4.355394005E1,-7.236369665E0,1.937046072E1,4.821333310E1
4.506705542E0,4.974222613E1,-4.595795143E0,2.286273716E1,5.493737475E1
4.516774542E0,5.565364889E1,-1.487025878E0,2.564500609E1,6.129605386E1
4.526844542E0,6.060902850E1,6.916361493E-1,2.771346798E1,6.664809828E1
4.536913542E0,6.466545718E1,3.060934364E0,2.928602050E1,7.105393492E1
4.546983542E0,6.573582976E1,2.437796007E0,3.074036804E1,7.260931339E1
4.557052542E0,6.446080931E1,6.490619874E-1,3.107998135E1,7.156523219E1
4.567121542E0,6.107127195E1,-1.936487312E0,2.871861371E1,6.751450966E1
4.577191542E0,5.476018031E1,-5.088733549E0,2.584965162E1,6.076822398E1
4.587260542E0,4.719843940E1,-8.101706711E0,2.326958877E1,5.324287835E1
4.597330542E0,4.033499170E1,-1.086332678E1,2.042870267E1,4.650005717E1
4.607399542E0,3.444257473E1,-1.331789553E1,1.799526342E1,4.107903116E1
4.617468542E0,2.947774369E1,-1.538363847E1,1.571617196E1,3.677759870E1
4.627538542E0,2.495597254E1,-1.692662278E1,1.305076314E1,3.285777751E1
4.637607542E0,2.089633959E1,-1.815359082E1,1.044836977E1,2.958679264E1
4.647677542E0,1.739133142E1,-1.955245413E1,8.238701127E0,2.743415877E1
4.657746542E0,1.473195459E1,-2.105326248E1,6.926941445E0,2.661302059E1
4.667815542E0,1.261664246E1,-2.270321810E1,5.792637157E0,2.661147167E1
4.677885542E0,1.059838593E1,-2.428025426E1,5.372820522E0,2.703190211E1
4.687954542E0,8.859867218E0,-2.596854189E1,5.110702708E0,2.791024359E1
4.698023542E0,7.321798655E0,-2.764861301E1,4.916983284E0,2.902122088E1
4.708093542E0,6.252375072E0,-2.900743342E1,5.045451289E0,3.009950110E1
4.718162542E0,5.035857763E0,-2.989619617E1,5.240806180E0,3.076700275E1
4.728232542E0,4.201944239E0,-3.025129757E1,5.398495646E0,3.101517524E1
4.738301542E0,3.993146600E0,-3.028664750E1,5.559758930E0,3.105055806E1
4.748370542E0,4.203651041E0,-3.026408894E1,6.051341951E0,3.114810590E1
4.758440542E0,5.276716855E0,-2.987142502E1,7.544061263E0,3.125793713E1
4.768509542E0,6.745216999E0,-2.895848521E1,8.077722602E0,3.081138459E1
4.778579542E0,8.549236225E0,-2.730614626E1,8.136890577E0,2.974767305E1
4.788648542E0,1.078964251E1,-2.561451871E1,8.034285976E0,2.893215694E1
4.798717542E0,1.279122863E1,-2.378436360E1,8.946676151E0,2.844915633E1
4.808787542E0,1.463910431E1,-2.207731811E1,1.076650157E1,2.859421105E1
4.818856542E0,1.601213346E1,-2.096627697E1,1.230323170E1,2.910915145E1
4.828926542E0,1.728857596E1,-1.997028564E1,1.349969014E1,2.966393098E1
4.838995542E0,1.916336871E1,-1.933536573E1,1.377936597E1,3.051166981E1
4.849064542E0,2.093617082E1,-1.869924948E1,1.341256078E1,3.111080144E1
4.859134542E0,2.279431304E1,-1.788070360E1,1.345993258E1,3.194479697E1
4.869203542E0,2.475467395E1,-1.747651599E1,1.328524234E1,3.308655554E1
4.879273542E0,2.629693555E1,-1.735186037E1,1.269537756E1,3.396746221E1
4.889342542E0,2.787105278E1,-1.736927338E1,1.207448395E1,3.498971854E1
4.899411542E0,2.908687369E1,-1.782115088E1,1.071160557E1,3.575441419E1
4.909481542E0,2.843058922E1,-1.783994617E1,9.226222175E0,3.480926972E1
4.919550542E0,2.626839412E1,-1.705597138E1,8.110851172E0,3.235306162E1
4.929619542E0,2.348786299E1,-1.631472570E1,7.023799987E0,2.944798378E1
4.939689542E0,2.055791444E1,-1.587009757E1,6.800983064E0,2.684662388E1
4.949758542E0,1.753756794E1,-1.623163092E1,7.581908535E0,2.507025067E1
4.959828542E0,1.383467479E1,-1.659192231E1,9.090010117E0,2.343754246E1
4.969897542E0,9.394010367E0,-1.736825713E1,9.797330253E0,2.204294596E1
4.979966542E0,4.042474295E0,-1.861707739E1,9.867721374E0,2.145481517E1
4.990036542E0,-2.421316214E0,-2.092556865E1,8.399857407E0,2.267817894E1
5.000105542E0,-1.014567228E1,-2.297756011E1,5.729136980E0,2.576287920E1
5.010175542E0,-1.716786837E1,-2.513751221E1,4.035198605E0,3.070688933E1
5.020244542E0,-2.259138192E1,-2.633898405E1,3.573516198E0,3.488384491E1
5.030313542E0,-2.582209486E1,-2.765652546E1,5.850760235E0,3.828701319E1
5.040384083E0,-2.861904264E1,-2.988222834E1,8.463804896E0,4.223308141E1
5.050453083E0,-3.262914968E1,-3.079244569E1,1.051011052E1,4.607926370E1
5.060523083E0,-3.597516270E1,-3.091839237E1,1.174437822E1,4.886808507E1
5.070592083E0,-3.768026224E1,-3.018707175E1,1.044632207E1,4.939825006E1
5.080661083E0,-3.729749181E1,-2.896134800E1,8.523855216E0,4.798456712E1
5.090731083E0,-3.609774373E1,-2.774795720E1,8.474072607E0,4.631205176E1
5.100800083E0,-3.438807868E1,-2.598327453E1,7.554297398E0,4.375771841E1
5.110869083E0,-3.173621904E1,-2.484734530E1,5.055125508E0,4.062182248E1
5.120939083E0,-2.786801223E1,-2.392046807E1,3.730431785E0,3.691518684E1
5.131008083E0,-2.283826540E1,-2.323344128E1,3.221548607E0,3.273770816E1
5.141078083E0,-1.749163221E1,-2.306328730E1,2.936930122E0,2.909463829E1
5.151147083E0,-1.238217730E1,-2.342062469E1,3.917585955E0,2.678043045E1
5.161216083E0,-7.271859341E0,-2.469651053E1,5.960955107E0,2.642594476E1
5.171286083E0,-1.312871237E0,-2.672543589E1,1.033926657E1,2.868576280E1
5.181355083E0,4.746956778E0,-2.937735635E1,1.627691526E1,3.391903057E1
5.191425083E0,1.018101753E1,-3.188431965E1,2.135142137E1,3.970070720E1
5.201494083E0,1.423685914E1,-3.379190359E1,2.465817384E1,4.418830664E1
5.211563083E0,1.795537489E1,-3.456802324E1,2.679754609E1,4.728056889E1
5.221633083E0,2.143517454E1,-3.334940035E1,2.657404212E1,4.772660606E1
5.231702083E0,2.374708175E1,-3.132097551E1,2.347521897E1,4.578223787E1
5.241771083E0,2.395825979E1,-2.906454668E1,2.076032400E1,4.300857052E1
5.251841083E0,2.243671839E1,-2.780213516E1,1.883801443E1,4.038856075E1
5.261910083E0,1.955432641E1,-2.695436841E1,1.717444415E1,3.746826911E1
5.271980083E0,1.679224675E1,-2.705161697E1,1.594272584E1,3.560814568E1
5.282049083E0,1.485146700E1,-2.719584439E1,1.519742453E1,3.451292129E1
5.292118083E0,1.237866313E1,-2.675870187E1,1.495337812E1,3.305847764E1
5.302188083E0,8.908721289E0,-2.625527531E1,1.494361327E1,3.149629144E1
5.312257083E0,4.959713566E0,-2.531646976E1,1.477139756E1,2.972737098E1
5.322327083E0,9.887612432E-1,-2.427246109E1,1.476785064E1,2.842920029E1
5.332396083E0,-2.443333320E0,-2.315528272E1,1.476486038E1,2.757060205E1
5.342465083E0,-4.492949637E0,-2.126857100E1,1.480791693E1,2.630234044E1
5.352535083E0,-5.103834568E0,-1.976585996E1,1.365514772E1,2.456015893E1
5.362604083E0,-4.675036025E0,-1.818488629E1,1.120541229E1,2.186566522E1
5.372674083E0,-3.743080482E0,-1.664858885E1,7.753909646E0,1.874324617E1
5.382743083E0,-2.882736958E0,-1.527658062E1,4.710397062E0,1.624413520E1
5.392812083E0,-1.814054217E0,-1.398779348E1,2.617762487E0,1.434579519E1
5.402882083E0,-8.225623244E-1,-1.311645310E1,1.051779318E0,1.318424023E1
5.412951083E0,-1.671870983E-1,-1.253650053E1,4.363087070E-1,1.254520475E1
5.423021083E0,7.837724805E-2,-1.200777190E1,7.030089837E-1,1.202858888E1
5.433090083E0,4.817772406E-1,-1.193119910E1,1.436160072E0,1.202697705E1
5.443159083E0,1.406745361E0,-1.246898039E1,1.493943426E0,1.263670334E1
5.453229083E0,2.635492122E0,-1.297414006E1,2.207389398E0,1.342187382E1
5.463298083E0,4.114357626E0,-1.305541519E1,4.122096123E0,1.429557557E1
5.473367083E0,6.878435867E0,-1.281579044E1,6.915621235E0,1.610537742E1
5.483437083E0,1.142096521E1,-1.202294308E1,1.107973457E1,1.994367381E1
5.493506083E0,1.877636139E1,-1.129814679E1,1.446413925E1,2.625664091E1
5.503576083E0,2.765659563E1,-1.220082825E1,1.710914947E1,3.473428403E1
5.513645083E0,3.679346884E1,-1.391322745E1,1.976772873E1,4.402386110E1
5.523714083E0,4.569925073E1,-1.497353347E1,2.282389528E1,5.323117900E1
5.533784083E0,5.465444861E1,-1.433956432E1,2.633472728E1,6.233979242E1
5.543853083E0,6.290300347E1,-1.168171478E1,2.924639275E1,7.034629908E1
5.553923083E0,6.969752887E1,-8.228776063E0,3.070219742E1,7.660341515E1
5.563992083E0,7.228064163E1,-5.563947875E0,3.117544065E1,7.891360320E1
5.574061083E0,7.161130852E1,-2.846493577E0,3.031070060E1,7.781401291E1
5.584131083E0,6.864067037E1,-2.814708112E0,2.695565012E1,7.379750188E1
5.594200083E0,6.438176431E1,-4.422184879E0,2.278434003E1,6.843751490E1
5.604270083E0,5.807746011E1,-6.382187937E0,1.824027462E1,6.120809844E1
5.614339083E0,5.050243901E1,-8.529626418E0,1.373682631E1,5.302783486E1
5.624408083E0,4.227458330E1,-1.075116081E1,1.009830165E1,4.477391594E1
5.634478083E0,3.438351318E1,-1.231803685E1,7.980342488E0,3.738510234E1
5.644547083E0,2.780961024E1,-1.381696123E1,6.084207981E0,3.164333147E1
5.654617083E0,2.244979978E1,-1.523541389E1,4.691022897E0,2.753392529E1
5.664686083E0,1.790744058E1,-1.689400935E1,3.802397561E0,2.491068460E1
5.674755083E0,1.421637985E1,-1.852511706E1,4.036236486E0,2.369760796E1
5.684825083E0,1.143381155E1,-2.005857860E1,4.944670435E0,2.361203904E1
5.694894083E0,9.160853813E0,-2.151725542E1,6.135735984E0,2.417769177E1
5.704964083E0,7.420987313E0,-2.273665248E1,7.131056634E0,2.495753168E1
5.715033083E0,6.413241330E0,-2.353075816E1,7.639325269E0,2.555749469E1
5.725102083E0,6.122687337E0,-2.421326388E1,7.369104969E0,2.603983787E1
5.735172083E0,5.915873074E0,-2.456679824E1,7.130977696E0,2.625597023E1
5.745241083E0,5.959213221E0,-2.482778754E1,7.226824086E0,2.653598015E1
5.755311083E0,6.469080486E0,-2.507436930E1,7.317701511E0,2.690951047E1
5.765380083E0,7.344848379E0,-2.541219101E1,7.463386059E0,2.748505742E1
5.775449083E0,8.270546817E0,-2.578004169E1,8.285399330E0,2.831360691E1
5.785519083E0,8.966472484E0,-2.552192922E1,9.279918326E0,2.859866053E1
5.795588083E0,9.565111007E0,-2.500698365E1,1.005932528E1,2.860123432E1
5.805658083E0,1.030875229E1,-2.443715143E1,1.069406743E1,2.859733942E1
5.815727083E0,1.093000960E1,-2.376170213E1,1.076987190E1,2.828557475E1
5.825796083E0,1.116645814E1,-2.303748939E1,1.043953229E1,2.764777638E1
5.835866083E0,1.098405658E1,-2.209969891E1,1.042970896E1,2.679225672E1
5.845935083E0,1.027004372E1,-2.076284765E1,1.064030462E1,2.549089491E1
5.856005083E0,1.013527944E1,-1.931346557E1,1.125675552E1,2.454482402E1
5.866074083E0,1.303082531E1,-1.870101534E1,1.169188894E1,2.561699923E1
5.876143083E0,1.747791582E1,-1.872163613E1,1.193730125E1,2.825732404E1
5.886213083E0,2.250761938E1,-1.811202179E1,1.142650954E1,3.106772255E1
5.896282083E0,2.893442976E1,-1.789246119E1,1.042585214E1,3.558145283E1
5.906351083E0,3.452627412E1,-1.810176110E1,8.746027776E0,3.995285173E1
5.916421083E0,3.696831462E1,-1.795088189E1,6.430725675E0,4.159620991E1
5.926490083E0,3.622810390E1,-1.739248682E1,5.205040516E0,4.052242042E1
5.936560083E0,3.240617429E1,-1.737762320E1,4.858280455E0,3.709103409E1
5.946629083E0,2.696490744E1,-1.694074381E1,5.178967781E0,3.226324133E1
5.956698083E0,2.102334111E1,-1.669096830E1,5.401383001E0,2.738145782E1
5.966768083E0,1.511700543E1,-1.631360069E1,6.298483876E0,2.311554282E1
5.976837083E0,9.508768407E0,-1.584121350E1,6.345960928E0,1.953540227E1
5.986907083E0,4.504922980E0,-1.679587202E1,4.759467480E0,1.802909257E1
5.996976083E0,5.976906896E-2,-1.843438464E1,3.222554620E0,1.871403131E1
6.007045083E0,-4.959021256E0,-2.132317698E1,1.157933471E0,2.192283235E1
6.017115083E0,-1.206661594E1,-2.480184227E1,3.666626675E-1,2.758385473E1
6.027184083E0,-2.056166835E1,-2.862543716E1,7.241346815E-1,3.525226559E1
6.037254083E0,-2.961980062E1,-3.114365519E1,1.846485360E0,4.301940673E1
6.047323458E0,-3.608840690E1,-3.317644672E1,5.628937923E0,4.934303063E1
6.057392458E0,-3.900478523E1,-3.503744707E1,7.513281519E0,5.296645511E1
6.067462458E0,-4.065037648E1,-3.567075665E1,8.957072500E0,5.481865683E1
6.077531458E0,-4.132873770E1,-3.367614042E1,8.850935011E0,5.404152148E1
6.087601458E0,-4.079498982E1,-3.296491317E1,8.216909723E0,5.308892823E1
6.097670458E0,-3.902087442E1,-3.116789540E1,8.014325920E0,5.057959830E1
6.107739458E0,-3.512691180E1,-2.973337460E1,8.056373248E0,4.672128688E1
6.117809458E0,-2.968111218E1,-2.839102696E1,7.995417779E0,4.184430114E1
6.127878458E0,-2.267954623E1,-2.691821391E1,7.570886534E0,3.600375509E1
6.137947458E0,-1.456880090E1,-2.580274526E1,6.165636306E0,3.026626329E1
6.148017458E0,-6.436028515E0,-2.456633046E1,5.064147177E0,2.589541739E1
6.158086458E0,1.614364786E0,-2.355736767E1,4.903411019E0,2.411636757E1
6.168156458E0,9.826305546E0,-2.334930035E1,6.455102717E0,2.614219690E1
6.178225458E0,1.809879071E1,-2.370065954E1,8.875444785E0,3.111367879E1
6.188294458E0,2.587021745E1,-2.381288164E1,1.136375957E1,3.695208403E1
6.198364458E0,3.202528901E1,-2.348827931E1,1.363383228E1,4.199047253E1
6.208433458E0,3.538309469E1,-2.278902716E1,1.522434394E1,4.475582417E1
6.218503458E0,3.589511432E1,-2.178830193E1,1.611077598E1,4.497495343E1
6.228572458E0,3.392148023E1,-2.059508636E1,1.638955602E1,4.293532287E1
6.238641458E0,3.034169319E1,-1.911364516E1,1.629123626E1,3.938723341E1
6.248711458E0,2.601301815E1,-1.816728734E1,1.510594952E1,3.514138804E1
6.258780458E0,2.186291942E1,-1.742533882E1,1.390541323E1,3.122483300E1
6.268850458E0,1.836542375E1,-1.713043801E1,1.267999120E1,2.813401629E1
6.278919458E0,1.587681485E1,-1.724269168E1,1.165402704E1,2.617632543E1
6.288988458E0,1.399517852E1,-1.751125079E1,1.098766198E1,2.496472795E1
6.299058458E0,1.205461394E1,-1.786649019E1,1.114902642E1,2.426573673E1
6.309127458E0,9.712407632E0,-1.812654394E1,1.176057384E1,2.368994627E1
6.319197458E0,7.315989447E0,-1.825410913E1,1.236095074E1,2.322777013E1
6.329266458E0,5.509238402E0,-1.865015976E1,1.264693806E1,2.319752593E1
6.339335458E0,3.905553555E0,-1.896606143E1,1.222305468E1,2.289908078E1
6.349405458E0,2.425802783E0,-1.873852055E1,1.192630147E1,2.234397767E1
6.359474458E0,1.195334017E0,-1.846562397E1,1.136077865E1,2.171348392E1
6.369544458E0,1.065590733E-1,-1.816450874E1,1.086476637E1,2.116610216E1
6.379613458E0,-4.015984654E-1,-1.773278308E1,1.044112390E1,2.058227260E1
6.389682458E0,-4.952568269E-1,-1.736808406E1,9.522017612E0,1.981323907E1
6.399752458E0,-3.122424853E-1,-1.678004595E1,8.666980437E0,1.888872646E1
6.409821458E0,8.294485903E-1,-1.594958111E1,7.496132221E0,1.764282066E1
6.419891458E0,2.285422829E0,-1.523863219E1,6.009415661E0,1.653941188E1
6.429960458E0,3.069447325E0,-1.447800299E1,5.256493090E0,1.570556580E1
6.440029458E0,3.646421914E0,-1.301995650E1,5.229505851E0,1.449701319E1
6.450099458E0,4.497319846E0,-1.199276677E1,4.974275472E0,1.374029684E1
6.460168458E0,5.441348720E0,-1.116218031E1,4.647745315E0,1.325911316E1
6.470237458E0,6.917945504E0,-1.010667018E1,4.888002144E0,1.318693737E1
6.480307458E0,9.568442751E0,-9.784228982E0,5.586882994E0,1.478172842E1
6.490376458E0,1.387649758E1,-1.076084380E1,6.635015695E0,1.877169086E1
6.500446458E0,1.980164960E1,-1.232932783E1,7.812640250E0,2.459989836E1
6.510515458E0,2.647737361E1,-1.484545606E1,9.993831782E0,3.195802798E1
6.520585458E0,3.291842547E1,-1.662478483E1,1.318052689E1,3.916289692E1
6.530654458E0,3.857432023E1,-1.723161121E1,1.699239460E1,4.553732623E1
6.540723458E0,4.495041420E1,-1.623675074E1,2.096219327E1,5.218798097E1
6.550793458E0,5.236330838E1,-1.432997839E1,2.327198145E1,5.906648343E1
6.560862458E0,5.909957680E1,-1.198690669E1,2.448830054E1,6.508550355E1
6.570932458E0,6.328876534E1,-9.674486099E0,2.562844210E1,6.896289251E1
6.581001458E0,6.496432942E1,-7.648615910E0,2.653645388E1,7.059071332E1
6.591070458E0,6.486410814E1,-6.374798226E0,2.619855498E1,7.024496324E1
6.601140458E0,6.253493294E1,-5.357378610E0,2.474189428E1,6.746466242E1
6.611209458E0,5.770303717E1,-4.573792655E0,2.305924337E1,6.230801539E1
6.621279458E0,5.105226907E1,-4.849665459E0,2.165408260E1,5.566644165E1
6.631348458E0,4.343551756E1,-5.509724890E0,2.007400589E1,4.816603541E1
6.641417458E0,3.571104865E1,-6.191092744E0,1.811805378E1,4.052002589E1
6.651487458E0,2.877272618E1,-7.154706282E0,1.552394357E1,3.346718420E1
6.661556458E0,2.348111764E1,-9.061288594E0,1.304694374E1,2.834947226E1
6.671626458E0,1.958126570E1,-1.166912339E1,1.141689789E1,2.549392015E1
6.681695458E0,1.638717504E1,-1.450432950E1,1.040127863E1,2.423018112E1
6.691764458E0,1.369989179E1,-1.763967202E1,9.029468046E0,2.409100158E1
6.701834458E0,1.100669817E1,-2.048130422E1,7.424068211E0,2.440794985E1
6.711903458E0,8.397414440E0,-2.299859371E1,5.923855693E0,2.519015578E1
6.721973458E0,6.269305685E0,-2.521716298E1,4.760356257E0,2.641723858E1
6.732042458E0,4.594419293E0,-2.704606679E1,4.362152685E0,2.777817117E1
6.742111458E0,3.376763531E0,-2.823674467E1,4.857565632E0,2.884982193E1
6.752181458E0,2.785490161E0,-2.874573777E1,5.894715509E0,2.947582173E1
6.762250458E0,2.866018599E0,-2.866530114E1,7.254799504E0,2.970767018E1
6.772320458E0,3.642671510E0,-2.837419868E1,9.208931959E0,3.005276417E1
6.782389458E0,4.982182077E0,-2.814998602E1,1.115367495E1,3.068628873E1
6.792458458E0,6.929868561E0,-2.810521506E1,1.281179796E1,3.165546333E1
6.802528458E0,9.393068966E0,-2.783539412E1,1.368588303E1,3.240898494E1
6.812597458E0,1.226193165E1,-2.743033177E1,1.343855984E1,3.291463139E1
6.822667458E0,1.501244435E1,-2.718122635E1,1.372673168E1,3.395019461E1
6.832736458E0,1.710157498E1,-2.642415927E1,1.450892307E1,3.465846085E1
6.842805458E0,1.931174181E1,-2.525358178E1,1.507088493E1,3.518264255E1
6.852875458E0,2.149158614E1,-2.382489182E1,1.487056400E1,3.536449376E1
6.862944458E0,2.381357161E1,-2.194673809E1,1.373078848E1,3.517499193E1
6.873014458E0,2.621527802E1,-1.993545728E1,1.257369700E1,3.525281712E1
6.883083458E0,2.824984477E1,-1.836175287E1,1.167014665E1,3.565669672E1
6.893152458E0,2.937532152E1,-1.724112814E1,1.112731454E1,3.583271051E1
6.903222458E0,2.957275158E1,-1.666506513E1,1.056303952E1,3.555066576E1
6.913291458E0,2.892647053E1,-1.603334599E1,1.010460728E1,3.458196017E1
6.923361458E0,2.735837126E1,-1.507037973E1,9.190121466E0,3.255848823E1
6.933430458E0,2.555405850E1,-1.428403448E1,7.551931615E0,3.023367688E1
6.943499458E0,2.313989285E1,-1.387871134E1,6.231654879E0,2.769308202E1
6.953569458E0,1.979829564E1,-1.319971161E1,5.020021749E0,2.431883046E1
6.963638458E0,1.618757799E1,-1.329138425E1,3.305576019E0,2.120437241E1
6.973708458E0,1.148283226E1,-1.480472319E1,1.735596132E0,1.881615156E1
6.983777458E0,5.668347571E0,-1.777967541E1,9.532367769E-1,1.868570797E1
6.993846458E0,-1.819980955E-1,-2.198044144E1,1.769475045E0,2.205230081E1
7.003916458E0,-6.606950229E0,-2.738268866E1,4.602186735E0,2.854196125E1
7.013985458E0,-1.389822700E1,-3.177507495E1,9.422651199E0,3.593887113E1
7.024055458E0,-2.009528742E1,-3.608109086E1,1.370746510E1,4.351505824E1
7.034124458E0,-2.458525907E1,-3.945978046E1,1.620781754E1,4.923619184E1
7.044192667E0,-2.830537695E1,-4.098787777E1,1.672035406E1,5.254303691E1
7.054262667E0,-3.196489662E1,-4.072415431E1,1.594872040E1,5.417169965E1
7.064331667E0,-3.435115703E1,-3.945926591E1,1.471578236E1,5.434694017E1
7.074400667E0,-3.415983847E1,-3.818261057E1,1.397355668E1,5.310429927E1
7.084470667E0,-3.213068390E1,-3.626833274E1,1.398886235E1,5.043273815E1
7.094539667E0,-2.898937254E1,-3.436624986E1,1.398505114E1,4.708507731E1
7.104609667E0,-2.523503909E1,-3.235977313E1,1.364594304E1,4.324550701E1
7.114678667E0,-2.029536276E1,-3.056777929E1,1.260056262E1,3.879516798E1
7.124747667E0,-1.370425849E1,-2.935678350E1,1.050610868E1,3.405885726E1
7.134817667E0,-5.976064312E0,-2.853289679E1,7.809632442E0,3.017995862E1
7.144886667E0,2.147027421E0,-2.798997346E1,5.505444728E0,2.860696178E1
7.154956667E0,9.993444697E0,-2.820112109E1,4.975353699E0,3.033028704E1
7.165025667E0,1.744461124E1,-2.930392701E1,8.826362087E0,3.522696790E1
7.175094667E0,2.399714144E1,-3.049609710E1,1.372671180E1,4.116184340E1
7.185164667E0,2.875791168E1,-3.096052039E1,1.779625812E1,4.585060643E1
7.195233667E0,3.052523261E1,-3.144531538E1,2.037707409E1,4.833035106E1
7.205303667E0,2.966989021E1,-3.127451587E1,2.289953486E1,4.881379339E1
7.215372667E0,2.619585123E1,-3.035349988E1,2.611962926E1,4.785177750E1
7.225441667E0,2.126364764E1,-2.914310286E1,2.883184855E1,4.618158341E1
7.235511667E0,1.679400559E1,-2.833614967E1,2.866268626E1,4.366377888E1
7.245580667E0,1.320535183E1,-2.809610978E1,2.636957201E1,4.073238305E1
7.255650667E0,1.049791323E1,-2.777075666E1,2.329816762E1,3.773891522E1
7.265719667E0,8.191077894E0,-2.796079351E1,1.986478784E1,3.526343044E1
7.275788667E0,5.898484624E0,-2.790572911E1,1.703265619E1,3.322097553E1
7.285858667E0,4.045906611E0,-2.787590831E1,1.493399460E1,3.188196699E1
7.295927667E0,2.816754053E0,-2.802560405E1,1.328016111E1,3.114050842E1
7.305997667E0,2.145576142E0,-2.791610207E1,1.165975849E1,3.032923045E1
7.316066667E0,2.170229757E0,-2.775395878E1,1.018817218E1,2.964440888E1
7.326135667E0,2.095444454E0,-2.727378309E1,9.382464455E0,2.891851952E1
7.336205667E0,2.061504291E0,-2.653407991E1,9.207583591E0,2.816179668E1
7.346274667E0,2.213469917E0,-2.554630041E1,9.574633198E0,2.737127171E1
7.356344667E0,2.497549288E0,-2.366628025E1,9.477636661E0,2.561554547E1
7.366413667E0,3.096053326E0,-2.154803048E1,8.464832252E0,2.335715199E1
7.376482667E0,3.318548067E0,-1.904178405E1,6.806716259E0,2.049228360E1
7.386552667E0,3.342070246E0,-1.668995088E1,5.304201107E0,1.782858501E1
7.396621667E0,3.893314163E0,-1.495846520E1,3.706669578E0,1.589506136E1
7.406691667E0,4.813479965E0,-1.373441024E1,2.866826977E0,1.483314906E1
7.416760667E0,6.205707275E0,-1.250804564E1,3.300207398E0,1.434759134E1
7.426829667E0,7.957642427E0,-1.136811340E1,5.350491174E0,1.487231761E1
7.436899667E0,1.187123240E1,-9.335014885E0,7.306662553E0,1.677664982E1
7.446968667E0,1.742991485E1,-7.299566957E0,9.005480429E0,2.093285187E1
7.457038667E0,2.436719534E1,-6.562738262E0,1.017826115E1,2.721078357E1
7.467107667E0,3.155995823E1,-7.203605377E0,1.205102492E1,3.454200480E1
7.477176667E0,3.791643596E1,-8.120823598E0,1.587746272E1,4.190104670E1
7.487246667E0,4.328713394E1,-1.031794528E1,2.224235694E1,4.974895378E1
7.497315667E0,4.715381345E1,-1.279950127E1,3.126153973E1,5.800511376E1
7.507385667E0,5.013991632E1,-1.440221138E1,4.059795736E1,6.610316969E1
7.517454667E0,5.379262516E1,-1.457344125E1,4.590242043E1,7.220155062E1
7.527523667E0,5.629597255E1,-1.303890265E1,4.788247008E1,7.504652189E1
7.537593667E0,5.656999646E1,-1.073395363E1,4.774358701E1,7.479861203E1
7.547662667E0,5.466444969E1,-7.774905244E0,4.258433604E1,6.972859448E1
7.557732667E0,5.310491308E1,-5.098225919E0,3.629299162E1,6.452367737E1
7.567801667E0,5.135064079E1,-3.727521626E0,2.982614184E1,5.950110473E1
7.577871667E0,4.843186043E1,-3.890176547E0,2.466887659E1,5.449157779E1
7.587940667E0,4.490597068E1,-5.578219174E0,2.052269081E1,4.968745888E1
7.598009667E0,3.965862322E1,-9.012426336E0,1.846973106E1,4.466722724E1
7.608079667E0,3.327631483E1,-1.213947809E1,1.769441716E1,3.959510646E1
7.618148667E0,2.730837756E1,-1.475425938E1,1.562667798E1,3.475095279E1
7.628218667E0,2.222938313E1,-1.668322658E1,1.282737144E1,3.061073311E1
7.638287667E0,1.793427346E1,-1.858383012E1,1.025250909E1,2.778688268E1
7.648356667E0,1.433918542E1,-2.026305105E1,8.257992260E0,2.616099984E1
7.658426667E0,1.144385005E1,-2.196913526E1,7.024897510E0,2.574788910E1
7.668495667E0,8.900328196E0,-2.350994909E1,5.724005463E0,2.578173359E1
7.678565667E0,6.874324690E0,-2.499839526E1,4.136940742E0,2.625434029E1
7.688634667E0,5.336896398E0,-2.620463141E1,2.733394977E0,2.688190132E1
7.698703667E0,3.943710730E0,-2.703528920E1,2.076313826E0,2.740019700E1
7.708773667E0,2.693592981E0,-2.749810334E1,2.231092256E0,2.771964832E1
7.718842667E0,1.891018193E0,-2.754512431E1,2.865463114E0,2.775825466E1
7.728912667E0,1.326054370E0,-2.748592943E1,3.423157094E0,2.772999714E1
7.738981667E0,8.913378596E-1,-2.691621650E1,4.181418757E0,2.725365034E1
7.749050667E0,1.196329798E0,-2.636839788E1,5.531512785E0,2.696889404E1
7.759120667E0,2.333582252E0,-2.601836484E1,7.131210415E0,2.707868308E1
7.769189667E0,4.266049603E0,-2.519262573E1,8.802430018E0,2.702499481E1
7.779259667E0,6.292647185E0,-2.387908381E1,9.941737769E0,2.662040951E1
7.789328667E0,8.851316249E0,-2.244157157E1,1.002224340E1,2.612307977E1
7.799397667E0,1.151896806E1,-2.071226924E1,1.103322348E1,2.614224058E1
7.809467667E0,1.402871932E1,-1.879273125E1,1.363746224E1,2.712843692E1
7.819536667E0,1.641204558E1,-1.730813255E1,1.553578769E1,2.846554746E1
7.829606667E0,1.946190415E1,-1.569893437E1,1.601943195E1,2.969586593E1
7.839675667E0,2.318130750E1,-1.442280762E1,1.558855999E1,3.143872770E1
7.849744667E0,2.640005003E1,-1.359887061E1,1.457519424E1,3.308063196E1
7.859814667E0,2.836578804E1,-1.278497679E1,1.387769041E1,3.406851705E1
7.869883667E0,2.812523593E1,-1.229580691E1,1.425176954E1,3.384270525E1
7.879953667E0,2.587736509E1,-1.148503783E1,1.442401331E1,3.177414480E1
7.890022667E0,2.285645257E1,-1.066497753E1,1.381047784E1,2.875566845E1
7.900091667E0,1.954915046E1,-9.606367791E0,1.300734874E1,2.537011444E1
7.910161667E0,1.680343832E1,-8.928864362E0,1.197236233E1,2.248149501E1
7.920230667E0,1.427789724E1,-8.645272649E0,1.040835493E1,1.967061110E1
7.930300667E0,1.138897510E1,-8.121310671E0,7.960600533E0,1.609458299E1
7.940369667E0,7.817268906E0,-8.008879824E0,4.019890594E0,1.189165125E1
7.950438667E0,4.233543177E0,-8.555388080E0,1.576198255E0,9.674810281E0
7.960508667E0,1.065031155E0,-1.073774964E1,1.662274532E0,1.091772482E1
7.970577667E0,-1.386553756E0,-1.511217797E1,3.003529324E0,1.547002401E1
7.980647667E0,-3.645381110E0,-2.057114552E1,4.499986176E0,2.137079098E1
7.990716667E0,-6.133456739E0,-2.614223226E1,5.384522554E0,2.738665153E1
8.000785667E0,-9.953268478E0,-2.968558647E1,6.369473752E0,3.195108439E1
8.010855667E0,-1.438512933E1,-3.223816742E1,6.817647044E0,3.595430010E1
8.020924667E0,-1.680582165E1,-3.481030613E1,5.950773350E0,3.911016182E1
8.030994667E0,-1.710809931E1,-3.644247452E1,3.938326614E0,4.045060478E1
8.041063667E0,-1.606774399E1,-3.689189151E1,2.339866839E0,4.030705934E1
8.051132917E0,-1.625822522E1,-3.656004799E1,1.148924081E0,4.002857758E1
8.061202917E0,-1.922768457E1,-3.647730521E1,5.633201712E-1,4.123851330E1
8.071271917E0,-2.349900076E1,-3.517507649E1,1.852162276E0,4.234288072E1
8.081341917E0,-2.612686110E1,-3.315708308E1,3.679316595E0,4.237384099E1
8.091410917E0,-2.494069026E1,-3.102921114E1,5.190668644E0,4.014714206E1
8.101479917E0,-1.965303209E1,-2.926735151E1,6.445423821E0,3.583801087E1
8.111549917E0,-1.227324952E1,-2.776949133E1,7.908660886E0,3.137394173E1
8.121618917E0,-4.623555384E0,-2.666930730E1,8.840228174E0,2.847417866E1
8.131688917E0,2.098435597E0,-2.572319506E1,1.007433157E1,2.770520443E1
8.141757917E0,8.320910055E0,-2.580062389E1,1.172647756E1,2.953675698E1
8.151826917E0,1.383124715E1,-2.611695826E1,1.449657609E1,3.291731497E1
8.161896917E0,1.841189040E1,-2.598406274E1,1.829357316E1,3.672633992E1
8.171965917E0,2.242189686E1,-2.597553516E1,2.184523510E1,4.067780946E1
8.182035917E0,2.556737144E1,-2.598170046E1,2.372365547E1,4.349196558E1
8.192104917E0,2.713081867E1,-2.579551810E1,2.416506879E1,4.455828347E1
8.202173917E0,2.726433399E1,-2.502941591E1,2.379454477E1,4.399995375E1
8.212243917E0,2.605315812E1,-2.376365042E1,2.310386230E1,4.215763967E1
8.222312917E0,2.387957030E1,-2.292588475E1,2.284769812E1,4.022247356E1
8.232382917E0,2.029255376E1,-2.238195336E1,2.253093340E1,3.768796273E1
8.242451917E0,1.568568458E1,-2.190423117E1,2.261868374E1,3.517727814E1
8.252520917E0,1.111483307E1,-2.104150490E1,2.274586302E1,3.291897214E1
8.262590917E0,7.524499987E0,-2.030567725E1,2.247233728E1,3.120808504E1
8.272659917E0,5.226397471E0,-1.976329888E1,2.180306498E1,2.988773755E1
8.282729917E0,3.271795485E0,-1.889885822E1,2.087736420E1,2.835023498E1
8.292798917E0,1.729728597E0,-1.797629155E1,1.951834265E1,2.659144070E1
8.302867917E0,1.211983963E0,-1.686322376E1,1.761096570E1,2.441276989E1
8.312937917E0,1.471036667E0,-1.583248009E1,1.558545628E1,2.226517061E1
8.323006917E0,1.976949459E0,-1.471432640E1,1.335984228E1,1.997260915E1
8.333076917E0,2.296136683E0,-1.295345261E1,1.063394636E1,1.691582080E1
8.343145917E0,2.227009145E0,-1.142750708E1,7.666190886E0,1.393979808E1
8.353214917E0,1.471606185E0,-1.026446899E1,5.481015061E0,1.172887354E1
8.363284917E0,2.752272713E-1,-9.320885088E0,4.425963934E0,1.032200589E1
8.373353917E0,-2.474348706E-1,-8.981481117E0,3.507767766E0,9.645344046E0
8.383423917E0,-2.845255136E-3,-9.471132803E0,3.463313725E0,1.008448842E1
8.393492917E0,3.062479198E-2,-1.031293656E1,6.006083332E0,1.193443067E1
8.403561917E0,7.679043067E-1,-1.154488876E1,9.802482820E0,1.516452449E1
8.413631917E0,1.928957852E0,-1.217046716E1,1.401379254E1,1.866085558E1
8.423700917E0,4.131865359E0,-1.037747345E1,1.822546246E1,2.137596193E1
8.433770917E0,8.863021206E0,-8.390340478E0,2.019283535E1,2.359452389E1
8.443839917E0,1.604065617E1,-8.012264192E0,1.985325011E1,2.675164608E1
8.453909917E0,2.317241740E1,-8.390245754E0,2.033212304E1,3.194921563E1
8.463978917E0,3.004998495E1,-7.915519670E0,2.342618656E1,3.891584849E1
8.474047917E0,3.710199366E1,-7.325839081E0,2.738780380E1,4.669387164E1
8.484117917E0,4.312746285E1,-5.325294937E0,3.355202976E1,5.490059671E1
8.494186917E0,5.025052693E1,-2.813929848E0,3.751855165E1,6.277479889E1
8.504256917E0,5.795578657E1,-5.024301910E-1,3.716230652E1,6.884883920E1
8.514325917E0,6.404211592E1,4.088793014E0,3.385484770E1,7.255523105E1
8.524394917E0,7.059668562E1,1.032433161E1,3.022130369E1,7.748426319E1
8.534464917E0,6.791518059E1,6.473671135E0,2.457510830E1,7.251424771E1
8.544533917E0,6.059656224E1,4.007110335E0,2.410415718E1,6.533766664E1
8.554603917E0,5.473819945E1,5.926248958E0,1.880343867E1,5.818041090E1
8.564672917E0,4.834815169E1,4.520017860E0,1.035182288E1,4.965012155E1
8.574741917E0,4.004778583E1,3.313978761E0,6.042465878E0,4.063642453E1
8.584811917E0,3.226834607E1,2.114873874E0,3.308560731E0,3.250639050E1
8.594880917E0,2.603167077E1,-3.622643919E-1,1.811383794E0,2.609713068E1
8.604950917E0,2.077056364E1,-3.104354033E0,2.063127478E0,2.110236534E1
8.615019917E0,1.646970732E1,-6.094928851E0,4.185187580E0,1.805312194E1
8.625088917E0,1.325554199E1,-9.208764144E0,6.307562263E0,1.732905284E1
8.635158917E0,1.084341584E1,-1.213103939E1,7.787597210E0,1.803852694E1
8.645227917E0,8.973282151E0,-1.431126964E1,8.528124268E0,1.892250340E1
8.655297917E0,7.780164229E0,-1.636490182E1,8.777951235E0,2.013438340E1
8.665366917E0,6.918898015E0,-1.816323639E1,8.788617725E0,2.133105969E1
8.675435917E0,5.795349680E0,-1.935950186E1,9.471151514E0,2.231768584E1
8.685505917E0,4.626233994E0,-2.009048802E1,1.079184574E1,2.327001685E1
8.695574917E0,4.117827948E0,-2.043791554E1,1.227404123E1,2.419332526E1
8.705644917E0,4.323081590E0,-2.062109478E1,1.364091326E1,2.509966332E1
8.715713917E0,5.555496894E0,-2.038161855E1,1.473506881E1,2.575647828E1
8.725782917E0,7.269919819E0,-1.988274814E1,1.504886315E1,2.597390402E1
8.735852917E0,9.028608506E0,-1.891620807E1,1.524862392E1,2.592024751E1
8.745921917E0,1.104580903E1,-1.770923517E1,1.525898051E1,2.585465903E1
8.755991917E0,1.352023141E1,-1.677104475E1,1.462798291E1,2.603924890E1
8.766060917E0,1.599393458E1,-1.568309543E1,1.438747757E1,2.662263955E1
8.776129917E0,1.876118318E1,-1.477065380E1,1.408860416E1,2.772441118E1
8.786199917E0,2.134459650E1,-1.391396654E1,1.386254379E1,2.900621286E1
8.796268917E0,2.388774237E1,-1.323308868E1,1.430564111E1,3.082839988E1
8.806338917E0,2.619336031E1,-1.265628425E1,1.449142820E1,3.250038687E1
8.816407917E0,2.822092678E1,-1.240592635E1,1.409811641E1,3.389815044E1
8.826477917E0,2.952384313E1,-1.220725785E1,1.372011614E1,3.476947000E1
8.836546917E0,2.969828195E1,-1.218637978E1,1.280623726E1,3.456147444E1
8.846615917E0,2.892749496E1,-1.212104182E1,1.194463132E1,3.356179133E1
8.856685917E0,2.756463763E1,-1.182741219E1,1.123504247E1,3.203003444E1
8.866754917E0,2.556533427E1,-1.191471229E1,1.052222244E1,3.010421649E1
8.876824917E0,2.277790342E1,-1.161672181E1,1.020912275E1,2.753193232E1
8.886893917E0,1.953371030E1,-1.082509535E1,9.127091405E0,2.412576061E1
8.896962917E0,1.671003373E1,-1.069556900E1,7.094845412E0,2.107029318E1
8.907032917E0,1.388331543E1,-1.107558890E1,4.949679744E0,1.843676887E1
8.917101917E0,1.041204102E1,-1.190502228E1,3.882273158E0,1.628533692E1
8.927171917E0,6.343792781E0,-1.441191425E1,3.931122844E0,1.622962434E1
8.937240917E0,1.097756267E0,-1.795088189E1,5.351004560E0,1.876359452E1
8.947309917E0,-4.733900530E0,-2.203978366E1,7.379913547E0,2.371971758E1
8.957379917E0,-1.118578318E1,-2.627235386E1,8.786199317E0,2.987566938E1
8.967448917E0,-1.706837098E1,-3.063096196E1,1.043822953E1,3.658608690E1
8.977518917E0,-2.150958387E1,-3.359203641E1,1.352582369E1,4.211929504E1
8.987587917E0,-2.507165853E1,-3.548080868E1,1.732305582E1,4.677140269E1
8.997656917E0,-2.998357696E1,-3.497808146E1,2.048870212E1,5.042090820E1
9.007726917E0,-3.454140671E1,-3.342203914E1,2.286607241E1,5.322592174E1
9.017795917E0,-3.601085644E1,-3.238806664E1,2.245007810E1,5.338328062E1
9.027864917E0,-3.391379699E1,-3.142697383E1,2.053110613E1,5.058978780E1
9.037934917E0,-2.884068018E1,-3.040205516E1,1.794600765E1,4.558650000E1
9.048003792E0,-2.212304567E1,-2.901569670E1,1.366132238E1,3.896115417E1
9.058073792E0,-1.497927544E1,-2.723105866E1,9.345906494E0,3.245389370E1
9.068142792E0,-8.400430434E0,-2.556295562E1,6.302321404E0,2.763604868E1
9.078212792E0,-3.148869470E0,-2.424644332E1,5.227150007E0,2.500256967E1
9.088281792E0,1.225316784E0,-2.382175537E1,5.959385714E0,2.458641308E1
9.098350792E0,5.660908744E0,-2.398032251E1,7.530042563E0,2.576438038E1
9.108420792E0,1.108739676E1,-2.447966303E1,9.418441204E0,2.847615325E1
9.118489792E0,1.681027488E1,-2.491538584E1,1.183175433E1,3.230096290E1
9.128559792E0,2.185852699E1,-2.517031509E1,1.503301369E1,3.656954285E1
9.138628792E0,2.572578655E1,-2.487720587E1,1.737213150E1,3.978042757E1
9.148697792E0,2.770721848E1,-2.435195282E1,1.819544051E1,4.113127299E1
9.158767792E0,2.793654862E1,-2.334379461E1,1.829824860E1,4.074566722E1
9.168836792E0,2.715242764E1,-2.145544099E1,1.752795512E1,3.879200286E1
9.178906792E0,2.552630294E1,-1.980786402E1,1.573449713E1,3.593769635E1
9.188975792E0,2.286154199E1,-1.848771709E1,1.467001620E1,3.285810647E1
9.199044792E0,1.935742026E1,-1.705779454E1,1.403152832E1,2.936940347E1
9.209114792E0,1.582519096E1,-1.619503319E1,1.319089400E1,2.620525622E1
9.219183792E0,1.247600991E1,-1.578497498E1,1.269246682E1,2.378896745E1
9.229253792E0,9.292392776E0,-1.532759407E1,1.252551945E1,2.186715210E1
9.239322792E0,6.328971258E0,-1.522000063E1,1.188510550E1,2.032141799E1
9.249391792E0,3.792761934E0,-1.551568263E1,1.114371247E1,1.947572279E1
9.259461792E0,1.537621835E0,-1.609582232E1,1.072251881E1,1.940134497E1
9.269530792E0,-4.112206435E-1,-1.691065871E1,1.073447169E1,2.003417987E1
9.279600792E0,-1.735132594E0,-1.736728883E1,1.146053800E1,2.088007035E1
9.289669792E0,-2.485172487E0,-1.697055174E1,1.228678232E1,2.109835843E1
9.299738792E0,-3.064587119E0,-1.649397092E1,1.257342218E1,2.096505942E1
9.309808792E0,-3.476260337E0,-1.559246242E1,1.225700946E1,2.013562890E1
9.319877792E0,-3.288500980E0,-1.477311197E1,1.126243317E1,1.886535122E1
9.329947792E0,-1.555385091E0,-1.432011180E1,8.814282324E0,1.688716665E1
9.340016792E0,4.822912109E-1,-1.384953373E1,6.172217932E0,1.517031521E1
9.350085792E0,1.276040211E0,-1.378477231E1,4.651133192E0,1.460415236E1
9.360155792E0,8.400186020E-1,-1.402744696E1,4.220997683E0,1.467282253E1
9.370224792E0,2.033544660E-2,-1.384133593E1,5.372761465E0,1.484754390E1
9.380294792E0,-5.386186087E-1,-1.342553926E1,6.210051756E0,1.480202544E1
9.390363792E0,5.826762092E-1,-1.315429394E1,5.308502904E0,1.419701249E1
9.400432792E0,4.467608973E0,-1.457003466E1,2.725760853E0,1.548144735E1
9.410502792E0,9.676828494E0,-1.736555221E1,3.174061614E-1,1.988225742E1
9.420571792E0,1.532308938E1,-2.002930042E1,6.679701287E-1,2.522728934E1
9.430641792E0,2.091524247E1,-2.287993499E1,4.033459643E0,3.126031973E1
9.440710792E0,2.709930920E1,-2.759369830E1,1.065841345E1,4.011715994E1
9.450779792E0,3.381846165E1,-3.128559050E1,1.911420181E1,4.987814383E1
9.460849792E0,3.978590073E1,-3.155771524E1,2.848206109E1,5.822400787E1
9.470918792E0,4.592871886E1,-2.950600211E1,3.643087598E1,6.562971965E1
9.480988792E0,5.174829356E1,-2.405400912E1,4.142457590E1,7.051579064E1
9.491057792E0,5.797581212E1,-1.667085621E1,4.129220897E1,7.310375339E1
9.501126792E0,6.535678050E1,-9.332176647E0,3.576341397E1,7.508408658E1
9.511196792E0,7.136656746E1,-2.624824462E0,2.961070703E1,7.731022329E1
9.521265792E0,7.227943477E1,2.478769786E0,2.580718446E1,7.678848716E1
9.531335792E0,7.014606176E1,4.502646659E0,2.481529321E1,7.454222015E1
9.541404792E0,6.253076972E1,4.399478971E0,2.540911772E1,6.763930692E1
9.551473792E0,5.221812903E1,2.481359518E0,2.572982814E1,5.826589226E1
9.561543792E0,4.238709309E1,-6.525977987E-1,2.361801265E1,4.852733318E1
9.571612792E0,3.435315210E1,-5.001756801E0,2.031891067E1,4.022455420E1
9.581682792E0,2.779791113E1,-9.276124068E0,1.612931751E1,3.345033967E1
9.591751792E0,2.224212071E1,-1.348293904E1,1.173350591E1,2.853378243E1
9.601821792E0,1.777187990E1,-1.768679824E1,8.080806423E0,2.634315812E1
9.611890792E0,1.429522254E1,-2.166124895E1,5.004519026E0,2.643119945E1
9.621959792E0,1.138154446E1,-2.507587086E1,3.265768175E0,2.773092309E1
9.632029792E0,8.978723570E0,-2.798922735E1,2.807146493E0,2.952785797E1
9.642098792E0,6.663273534E0,-2.955746930E1,3.506324966E0,3.050143473E1
9.652168792E0,5.245070554E0,-3.027955132E1,5.381363888E0,3.119809402E1
9.662237792E0,5.035777071E0,-3.075571348E1,7.069968433E0,3.195711839E1
9.672306792E0,5.956324697E0,-3.096928654E1,9.100594747E0,3.282370085E1
9.682376792E0,7.699012477E0,-3.081124098E1,1.142202824E1,3.375011248E1
9.692445792E0,1.000643019E1,-3.063383411E1,1.373844131E1,3.503291606E1
9.702515792E0,1.283776428E1,-3.119500076E1,1.507416756E1,3.694816357E1
9.712584792E0,1.611696819E1,-3.130930447E1,1.514210285E1,3.833161213E1
9.722653792E0,1.928592284E1,-3.113424585E1,1.417258655E1,3.927022146E1
9.732723792E0,2.177451887E1,-3.079230067E1,1.377059164E1,4.014878139E1
9.742792792E0,2.313078522E1,-2.995417716E1,1.384434725E1,4.029828662E1
9.752862792E0,2.375448900E1,-2.924892109E1,1.455796250E1,4.039442294E1
9.762931792E0,2.430340456E1,-2.832306127E1,1.498853509E1,4.021824781E1
9.773000792E0,2.476723611E1,-2.743065921E1,1.478859306E1,3.980652627E1
9.783070792E0,2.490374053E1,-2.631898657E1,1.488254846E1,3.917110664E1
9.793139792E0,2.487065231E1,-2.557918983E1,1.475215555E1,3.860661073E1
9.803209792E0,2.496772310E1,-2.503364227E1,1.475696898E1,3.831238149E1
9.813278792E0,2.563268250E1,-2.420209570E1,1.420928133E1,3.800894006E1
9.823347792E0,2.671873264E1,-2.305398088E1,1.236640853E1,3.739391352E1
9.833417792E0,2.803616412E1,-2.156966518E1,9.938802466E0,3.674311839E1
9.843486792E0,2.868836957E1,-2.035022368E1,7.744002124E0,3.601560386E1
9.853556792E0,2.817886893E1,-1.957308194E1,6.429946826E0,3.490699653E1
9.863625792E0,2.606635879E1,-1.923863992E1,5.629459494E0,3.288268755E1
9.873694792E0,2.229457959E1,-1.905433100E1,5.285563692E0,2.980021800E1
9.883764792E0,1.687999007E1,-1.992405989E1,4.110178328E0,2.643474594E1
9.893833792E0,1.002815143E1,-2.175750582E1,1.813765511E0,2.402587409E1
9.903903792E0,1.832198128E0,-2.600173302E1,-7.272345829E-1,2.607634829E1
9.913972792E0,-8.782611465E0,-3.137466230E1,-1.745761077E0,3.262746359E1
9.924041792E0,-2.042735079E1,-3.534503634E1,-1.222826748E-1,4.082356191E1
9.934111792E0,-2.805274683E1,-4.125960490E1,3.435978284E0,5.001117423E1
9.944180792E0,-3.383960986E1,-4.525118093E1,7.777676239E0,5.703753868E1
9.954250792E0,-4.212847775E1,-4.774709534E1,1.301314099E1,6.499181171E1
9.964319792E0,-5.357959940E1,-4.345270838E1,1.320226216E1,7.023682128E1
9.974388792E0,-4.841110047E1,-4.080791451E1,1.255696812E1,6.454919042E1
9.984458792E0,-4.127392356E1,-3.888739886E1,1.164532990E1,5.789110696E1
9.994527792E0,-4.098431331E1,-3.472353111E1,9.644280553E0,5.457517473E1
1.000459779E1,-3.591420431E1,-3.252204974E1,7.552110540E0,4.903619239E1