"Time (s)","Linear Acceleration x (m/s^2)","Linear Acceleration y (m/s^2)","Linear Acceleration z (m/s^2)","Absolute acceleration (m/s^2)"
9.806791670E-3,-6.021597165E-1,-1.385170305E-1,9.995673363E-1,1.175124739E0
1.987579168E-2,-6.443947399E-1,-1.570521194E-1,8.285479729E-1,1.061320730E0
2.994479163E-2,-6.915063411E-1,-1.366067451E-1,5.124359465E-1,8.714545438E-1
4.001479165E-2,-6.464447737E-1,-1.211262417E-1,4.860275817E-1,8.177928968E-1
5.008379166E-2,-5.165716821E-1,-1.682290721E-1,2.511425900E-1,5.985147650E-1
6.015379168E-2,-3.507540017E-1,-1.323464638E-1,1.260498896E-1,3.955155255E-1
7.022279163E-2,-3.736376649E-1,-1.021531963E-1,6.495306417E-2,3.927585527E-1
8.029179164E-2,-3.995484316E-1,-8.908525407E-2,6.254795820E-2,4.141103462E-1
9.036179166E-2,-2.944920927E-1,-6.796745002E-2,3.994373345E-1,5.008945509E-1
1.004307917E-1,-2.288933498E-1,-6.909713209E-2,7.239721289E-1,7.624317823E-1
1.104997916E-1,-1.911413866E-1,-1.027279776E-1,7.149213700E-1,7.471282570E-1
1.205697916E-1,-2.312462693E-1,-1.000534612E-1,6.371515015E-1,6.851624391E-1
1.306387917E-1,-2.185198045E-1,-4.406052411E-2,4.695729321E-1,5.197989739E-1
1.407087917E-1,-1.739271837E-1,-9.842618108E-3,1.824106166E-1,2.522323838E-1
1.507777916E-1,-7.792701244E-2,1.994719148E-2,1.198012626E-1,1.443012552E-1
1.608467916E-1,-1.313898593E-1,1.592781544E-2,-2.562615350E-2,1.348098297E-1
1.709167917E-1,-1.054709065E-1,1.135535127E-1,-2.443758997E-1,2.893753492E-1
1.809857917E-1,1.029343843E-1,1.746727037E-1,-5.655093688E-1,6.007552639E-1
1.910547917E-1,3.090265167E-1,2.139654082E-1,-7.516136715E-1,8.403580755E-1
2.011247916E-1,4.843447530E-1,2.311188000E-1,-9.661192162E-1,1.105166087E0
2.111937916E-1,5.688422817E-1,2.831905943E-1,-9.149975945E-1,1.114001370E0
2.212637917E-1,4.681263310E-1,3.364534664E-1,-6.711850740E-1,8.847782775E-1
2.313327917E-1,4.191728568E-1,3.650206232E-1,-3.982754928E-1,6.837903973E-1
2.414017916E-1,3.946490496E-1,3.298619002E-1,-2.322022891E-1,5.643355816E-1
2.514717916E-1,2.560080582E-1,3.339520276E-1,-2.834569350E-2,4.217434776E-1
2.615407917E-1,3.750012356E-1,-1.854847902E-1,-6.561701551E-2,4.234809639E-1
2.716107917E-1,3.339210373E-1,-2.141396552E-1,-3.613593891E-2,3.983275752E-1
2.816797916E-1,1.344222254E-1,1.182248533E-2,1.450308287E-1,1.980985793E-1
2.917487916E-1,4.828923047E-2,7.225638270E-2,1.538248949E-1,1.766774827E-1
3.018187917E-1,-2.689309895E-2,6.917139173E-2,3.822617233E-3,7.431374440E-2
3.118877917E-1,2.169609368E-2,-2.432810086E-1,-1.709573829E-1,2.981321794E-1
3.219567916E-1,-4.423184752E-2,-3.178411943E-1,-1.603449789E-1,3.587338754E-1
3.320267916E-1,-1.975136822E-1,-2.799816424E-1,-1.213797185E-1,3.635029722E-1
3.420957917E-1,-3.244041091E-1,-1.643044209E-1,-2.750559479E-2,3.646786620E-1
3.521657917E-1,-3.524789304E-1,-1.792569208E-1,-3.863840103E-3,3.954609580E-1
3.622347916E-1,-2.296488100E-1,-3.558165210E-1,5.009017289E-3,4.235198494E-1
3.723037916E-1,-1.836423326E-1,-4.492591202E-1,-2.404959798E-3,4.853494074E-1
3.823737917E-1,-2.251493776E-1,-4.000846213E-1,-4.684204459E-2,4.614695262E-1
3.924427917E-1,-2.917643666E-1,-3.250379473E-1,-1.626987755E-1,4.660976340E-1
4.025117917E-1,-2.688812882E-1,-3.342221689E-1,-3.002501383E-1,5.235950257E-1
4.125817916E-1,-2.426144260E-1,-3.187393266E-1,-3.422082961E-1,5.268425153E-1
4.226507916E-1,-3.350261611E-1,-2.760856426E-1,-4.431616437E-1,6.203692877E-1
4.327207917E-1,-3.367458272E-1,-3.485484320E-1,-4.513158783E-1,6.622460144E-1
4.427897917E-1,-3.587067997E-1,-3.696171194E-1,-3.010585159E-1,5.965933399E-1
4.528587916E-1,-4.385563767E-1,-4.947896343E-1,-2.146403231E-1,6.951395156E-1
4.629287916E-1,-5.446938658E-1,-6.078923267E-1,-2.551622584E-1,8.551796691E-1
4.729977917E-1,-5.780042839E-1,-6.925541621E-1,-1.669032159E-1,9.173750069E-1
4.830667917E-1,-7.663442695E-1,-4.548666000E-1,-7.783696532E-2,8.945645625E-1
4.931367916E-1,-9.117516589E-1,-4.066814500E-1,-2.273607945E-1,1.023901275E0
5.032057916E-1,-1.002901565E0,-5.114904517E-1,-3.360073239E-1,1.174876569E0
5.132757917E-1,-1.114562334E0,-5.152092808E-1,-3.120109355E-1,1.266901978E0
5.233447917E-1,-1.266032701E0,-5.182843316E-1,-4.058224940E-1,1.426937050E0
5.334137917E-1,-1.415855323E0,-5.678242815E-1,-2.540357924E-1,1.546481456E0
5.434837916E-1,-1.597330678E0,-5.142374736E-1,-5.096754760E-2,1.678839827E0
5.535527917E-1,-1.835699440E0,-4.241862595E-1,-8.782634854E-2,1.886117675E0
5.636217917E-1,-1.902893304E0,-4.448316085E-1,-3.284264088E-2,1.954470958E0
5.736917917E-1,-1.932819938E0,-2.830221945E-1,1.359346077E-2,1.953478758E0
5.837607916E-1,-1.936666237E0,2.076755583E-2,-1.545828402E-2,1.936839271E0
5.938307917E-1,-1.833127250E0,2.442235798E-1,-2.685947746E-1,1.868727863E0
6.038997917E-1,-2.065883855E0,7.773732877E-1,-5.057642734E-1,2.264504986E0
6.139687917E-1,-2.013333174E0,9.953949094E-1,-1.032980812E0,2.472118697E0
6.240387916E-1,-2.143475237E0,1.319028355E0,-1.551965786E0,2.956842860E0
6.341077916E-1,-2.423380866E0,1.786917874E0,-1.691473188E0,3.453539034E0
6.441767917E-1,-2.506347009E0,2.137227488E0,-1.773731087E0,3.741074529E0
6.542467917E-1,-2.172528883E0,2.387055624E0,-1.749206257E0,3.671190383E0
6.643157916E-1,-1.922143507E0,2.804407657E0,-1.688244356E0,3.795985640E0
6.743857916E-1,-1.731686245E0,2.768083000E0,-1.951993543E0,3.804116130E0
6.844547917E-1,-1.559550063E0,2.960711333E0,-2.304188883E0,4.062916983E0
6.945237917E-1,-1.287704821E0,3.446281663E0,-2.682561623E0,4.553150323E0
7.045937916E-1,-8.017760575E-1,3.959060256E0,-3.002574474E0,5.033135844E0
7.146627916E-1,-3.767711878E-2,3.944408888E0,-3.362130874E0,5.183020842E0
7.247327917E-1,7.486517644E-1,3.575298137E0,-3.459199331E0,5.030834548E0
7.348017917E-1,1.947942007E0,3.580244882E0,-3.401010180E0,5.308436843E0
7.448707917E-1,3.599559404E0,3.667909262E0,-3.441120325E0,6.184795498E0
7.549407916E-1,5.858088550E0,3.322838169E0,-4.159392296E0,7.915743757E0
7.650097916E-1,8.429349593E0,3.480946881E0,-5.202779397E0,1.049951614E1
7.750787917E-1,1.061783962E1,4.007886845E0,-6.493714221E0,1.307554968E1
7.851487917E-1,1.269376022E1,4.001667162E0,-7.923496442E0,1.548956696E1
7.952177916E-1,1.488098257E1,2.289080848E0,-8.585920486E0,1.733209635E1
8.052877916E-1,1.661835640E1,-2.187653875E-1,-8.676636529E0,1.874837724E1
8.153567917E-1,1.815458485E1,-1.998370149E0,-7.898676181E0,1.989903313E1
8.254257917E-1,2.067438630E1,-4.127854754E0,-6.574746104E0,2.208385655E1
8.354957916E-1,2.346708900E1,-5.567811130E0,-5.299964215E0,2.469401562E1
8.455647916E-1,2.593786506E1,-6.286554387E0,-4.139981879E0,2.700801843E1
8.556337917E-1,2.766262060E1,-6.338367149E0,-3.280629458E0,2.856847924E1
8.657037917E-1,2.871333017E1,-6.075907858E0,-2.750016857E0,2.947769628E1
8.757727917E-1,2.965951257E1,-6.908991662E0,-2.512712288E0,3.055707078E1
8.858427916E-1,3.001748145E1,-8.012444286E0,-1.481814255E0,3.110376552E1
8.959117917E-1,3.054061546E1,-9.348412610E0,-2.300464572E-1,3.194017740E1
9.059762916E-1,3.104850929E1,-1.144494465E1,1.204663249E0,3.311265469E1
9.160462916E-1,3.091227852E1,-1.363847614E1,3.095467435E0,3.392873286E1
9.261152917E-1,3.018961412E1,-1.547250211E1,5.095508133E0,3.430415901E1
9.361842917E-1,2.928269694E1,-1.662589463E1,6.920566226E0,3.437718647E1
9.462542916E-1,2.828419833E1,-1.730002948E1,8.025067255E0,3.411288026E1
9.563232916E-1,2.652686678E1,-1.747662124E1,8.490315002E0,3.288149024E1
9.663932917E-1,2.390436718E1,-1.744327223E1,8.643485155E0,3.082849902E1
9.764622917E-1,2.082229045E1,-1.700023689E1,9.088066503E0,2.837549623E1
9.865312917E-1,1.758074846E1,-1.656487777E1,9.103146472E0,2.581366242E1
9.966012916E-1,1.485281186E1,-1.658297724E1,8.668125907E0,2.389011429E1
1.006670292E0,1.285274485E1,-1.697721523E1,7.560005450E0,2.259585293E1
1.016740292E0,1.120608706E1,-1.643608583E1,7.158005866E0,2.114138956E1
1.026809292E0,1.031230740E1,-1.885433752E1,6.959071895E0,2.258890012E1
1.036878292E0,8.875365263E0,-1.978912019E1,7.102095374E0,2.282150620E1
1.046948292E0,8.262805104E0,-2.095150924E1,6.308969103E0,2.338894565E1
1.057017292E0,8.000617123E0,-2.214413073E1,5.366215507E0,2.414888546E1
1.067086292E0,7.653338122E0,-2.340059446E1,4.326582903E0,2.499761439E1
1.077156292E0,7.220825427E0,-2.501852137E1,3.598473869E0,2.628717835E1
1.087225292E0,6.427215591E0,-2.507744493E1,3.570040905E0,2.613297795E1
1.097295292E0,5.862350585E0,-2.575689841E1,3.598385868E0,2.665958272E1
1.107364292E0,5.768615626E0,-2.667756123E1,4.348493882E0,2.763835375E1
1.117433292E0,6.407854875E0,-2.638167340E1,5.150856707E0,2.763303495E1
1.127503292E0,7.522599642E0,-2.543720540E1,5.222499132E0,2.703544750E1
1.137572292E0,9.684490685E0,-2.354743442E1,5.429177155E0,2.603357433E1
1.147641292E0,1.123187094E1,-2.235249743E1,5.446838086E0,2.560189663E1
1.157711292E0,1.285573511E1,-2.156718362E1,5.348041191E0,2.567128511E1
1.167780292E0,1.481221815E1,-1.995012444E1,5.534590759E0,2.545664877E1
1.177850292E0,1.702249139E1,-1.882279530E1,6.155418881E0,2.611421103E1
1.187919292E0,1.923261378E1,-1.773685274E1,6.729000331E0,2.701423372E1
1.197988292E0,2.161759130E1,-1.695436665E1,6.961240627E0,2.834130684E1
1.208058292E0,2.416145521E1,-1.648481652E1,6.585400901E0,2.998153763E1
1.218127292E0,2.647690350E1,-1.589564757E1,5.597539544E0,3.138519522E1
1.228196292E0,2.808197355E1,-1.531388586E1,4.624119641E0,3.231864510E1
1.238266292E0,2.818223225E1,-1.480092366E1,2.921558962E0,3.196624880E1
1.248335292E0,2.856681765E1,-1.370809309E1,1.472140767E0,3.171974283E1
1.258405292E0,2.742654043E1,-1.351629974E1,8.049066567E-1,3.058681666E1
1.268474292E0,2.422587282E1,-1.366072129E1,9.736796661E-1,2.782905446E1
1.278543292E0,2.229431062E1,-1.344528765E1,1.643883870E0,2.608667093E1
1.288613292E0,2.044044388E1,-1.311241034E1,2.292452352E0,2.439267080E1
1.298682292E0,1.836295622E1,-1.329875876E1,2.514062995E0,2.281174387E1
1.308751292E0,1.553465333E1,-1.376466841E1,2.683613538E0,2.092829024E1
1.318821292E0,1.240115035E1,-1.426869606E1,2.299597650E0,1.904395880E1
1.328890292E0,9.009347193E0,-1.574267388E1,4.501888275E-1,1.814394631E1
1.338960292E0,4.118325546E0,-1.853317335E1,-1.320683702E0,1.903111466E1
1.349029292E0,-2.933263333E0,-2.048390740E1,-1.388901998E0,2.073942007E1
1.359098292E0,-9.562945783E0,-2.228024689E1,6.034958053E-1,2.425332020E1
1.369168292E0,-1.371672007E1,-2.607418003E1,3.693187945E0,2.969260701E1
1.379237292E0,-1.703911035E1,-3.002858414E1,6.835452400E0,3.519617247E1
1.389306292E0,-1.990222405E1,-3.295807427E1,9.952847478E0,3.976672421E1
1.399376292E0,-2.227724610E1,-3.472698564E1,1.076223076E1,4.263877152E1
1.409445292E0,-2.451789914E1,-3.562846257E1,1.033928177E1,4.446813996E1
1.419514292E0,-2.604859261E1,-3.609552413E1,9.950731956E0,4.561176499E1
1.429584292E0,-2.678311049E1,-3.670837314E1,1.035148491E1,4.660464468E1
1.439653292E0,-2.708988348E1,-3.667836523E1,1.165437320E1,4.706366622E1
1.449723292E0,-2.766443089E1,-3.567532216E1,1.277797416E1,4.691829037E1
1.459792292E0,-2.748435069E1,-3.456948972E1,1.366305550E1,4.622897617E1
1.469861292E0,-2.516013860E1,-3.337231208E1,1.373162229E1,4.399205881E1
1.479931292E0,-2.048447809E1,-3.190262378E1,1.285948902E1,4.003445646E1
1.490000292E0,-1.332468181E1,-3.065001219E1,1.148617687E1,3.533981680E1
1.500069292E0,-5.929269045E0,-2.994240554E1,1.008794857E1,3.214763735E1
1.510139292E0,4.684654695E-1,-2.996662003E1,1.015779473E1,3.164488220E1
1.520208292E0,6.582315910E0,-3.098906182E1,1.200958453E1,3.388036239E1
1.530278292E0,1.166607699E1,-3.259791853E1,1.537998279E1,3.788489825E1
1.540347292E0,1.550124702E1,-3.395057130E1,1.847276693E1,4.164340367E1
1.550416292E0,1.860729733E1,-3.492968054E1,2.064793583E1,4.463912355E1
1.560486292E0,2.114760146E1,-3.551599255E1,2.150366883E1,4.659414714E1
1.570555292E0,2.287115715E1,-3.513257659E1,2.076406621E1,4.678177223E1
1.580624292E0,2.385366480E1,-3.475741923E1,1.940392667E1,4.640676552E1
1.590694292E0,2.401837852E1,-3.466201372E1,1.923392238E1,4.634955741E1
1.600763292E0,2.345070744E1,-3.555301946E1,1.961192032E1,4.688902100E1
1.610833292E0,2.252291102E1,-3.593246399E1,2.029349633E1,4.701329049E1
1.620902292E0,2.056551348E1,-3.575170083E1,2.167367311E1,4.659262349E1
1.630971292E0,1.749881493E1,-3.553170051E1,2.259678474E1,4.559961563E1
1.641041292E0,1.368888382E1,-3.538950792E1,2.246451839E1,4.409600206E1
1.651110292E0,1.082226997E1,-3.429779534E1,2.198498355E1,4.215210308E1
1.661179292E0,8.560502055E0,-2.992141871E1,2.043993400E1,3.723391458E1
1.671249292E0,6.604873298E0,-2.614192821E1,1.615119077E1,3.143064945E1
1.681318292E0,6.633096054E0,-2.420705882E1,1.139955037E1,2.756681716E1
1.691388292E0,6.437423075E0,-2.180374794E1,7.735739424E0,2.401427709E1
1.701457292E0,5.432974922E0,-1.942187061E1,4.870854015E0,2.074732496E1
1.711526292E0,5.420801019E0,-1.841389249E1,3.406922885E0,1.949522105E1
1.721596292E0,5.837457234E0,-1.745887026E1,3.135241657E0,1.867398720E1
1.731665292E0,6.893649738E0,-1.645267906E1,3.431762149E0,1.816562816E1
1.741734292E0,8.673926929E0,-1.568787845E1,3.949756751E0,1.835611934E1
1.751804292E0,1.146812184E1,-1.479847485E1,5.633260185E0,1.955112009E1
1.761873292E0,1.584257239E1,-1.339534775E1,7.427129813E0,2.203598644E1
1.771943292E0,2.046827662E1,-1.068660522E1,9.124972959E0,2.482778706E1
1.782012292E0,2.399601409E1,-9.245828474E0,1.069919778E1,2.785259179E1
1.792081292E0,2.624962924E1,-9.530746921E0,1.320119095E1,3.088931230E1
1.802151292E0,2.631245640E1,-5.987986785E0,1.806721107E1,3.247499752E1
1.812220292E0,2.796318385E1,-5.324458201E0,2.395202900E1,3.720200532E1
1.822290292E0,3.261478190E1,-4.937162025E0,2.899640557E1,4.391914279E1
1.832359292E0,3.933175919E1,-2.436563998E0,3.174391397E1,5.060237345E1
1.842428292E0,4.876844955E1,-4.077062915E0,3.117572132E1,5.802507831E1
1.852498292E0,5.833594914E1,-3.769611638E0,2.928891838E1,6.538450638E1
1.862567292E0,6.377533788E1,-1.585562571E0,2.804701188E1,6.968818124E1
1.872636292E0,6.577957629E1,-3.358448297E0,2.734454844E1,7.131588996E1
1.882706292E0,6.326536712E1,-5.778314987E0,2.630441999E1,6.875913111E1
1.892775292E0,5.771160685E1,-8.928012423E0,2.549553957E1,6.372096600E1
1.902845292E0,5.138673916E1,-1.275692184E1,2.468334494E1,5.841749339E1
1.912917667E0,4.491457310E1,-1.587046595E1,2.325673425E1,5.301005805E1
1.922986667E0,3.896102934E1,-1.774350688E1,2.069414287E1,4.755040896E1
1.933056667E0,3.365469751E1,-1.843406538E1,1.734006420E1,4.210856513E1
1.943125667E0,2.857600480E1,-1.855077932E1,1.397418935E1,3.682387040E1
1.953194667E0,2.356745529E1,-1.837664923E1,1.158872768E1,3.205346775E1
1.963264667E0,1.971011261E1,-1.880224935E1,9.674109539E0,2.890677282E1
1.973333667E0,1.729358585E1,-2.013958358E1,7.294630737E0,2.752966720E1
1.983403667E0,1.508790150E1,-2.184217584E1,5.645363921E0,2.714029386E1
1.993472667E0,1.288586464E1,-2.312521633E1,4.320187218E0,2.682322046E1
2.003541667E0,1.143122591E1,-2.467685219E1,2.856237669E0,2.734553078E1
2.013611667E0,1.042579835E1,-2.628469382E1,1.506574728E0,2.831699433E1
2.023680667E0,9.376617824E0,-2.714836967E1,8.869026735E-1,2.873571879E1
2.033750667E0,8.081090598E0,-2.749157784E1,1.022310228E0,2.867291398E1
2.043819667E0,7.462099087E0,-2.802696996E1,2.008276502E0,2.907279041E1
2.053888667E0,7.462658080E0,-2.860529467E1,2.927626033E0,2.970732474E1
2.063958667E0,8.456781220E0,-2.818905010E1,3.915426871E0,2.968956486E1
2.074027667E0,1.119742967E1,-2.917467314E1,4.735571372E0,3.160648067E1
2.084096667E0,1.350246991E1,-2.890051825E1,4.507478506E0,3.221605207E1
2.094166667E0,1.543265918E1,-2.727365212E1,3.770923461E0,3.156325289E1
2.104235667E0,1.742543822E1,-2.600100563E1,3.248408669E0,3.146824352E1
2.114305667E0,1.942011644E1,-2.480226093E1,3.257457528E0,3.166866116E1
2.124374667E0,2.150855710E1,-2.400171396E1,3.481652640E0,3.241638793E1
2.134443667E0,2.285300272E1,-2.200026818E1,3.017174386E0,3.186494742E1
2.144513667E0,2.559576318E1,-2.082050354E1,2.640859866E0,3.310000908E1
2.154582667E0,2.685426408E1,-1.908002718E1,1.852827981E0,3.299442238E1
2.164652667E0,2.903978022E1,-1.894214398E1,9.829371241E-1,3.468544103E1
2.174721667E0,3.136460977E1,-1.724068960E1,1.770364991E0,3.583454082E1
2.184790667E0,3.113362136E1,-1.549858069E1,1.145750797E0,3.479685514E1
2.194860667E0,3.116419762E1,-1.580313175E1,1.047472843E0,3.495773714E1
2.204929667E0,3.046633711E1,-1.478371882E1,1.199765768E0,3.388503323E1
2.214998667E0,2.868966298E1,-1.445125432E1,1.328485057E0,3.215121126E1
2.225068667E0,2.585042579E1,-1.400015099E1,2.030719285E0,2.946816184E1
2.235137667E0,2.241699924E1,-1.348496802E1,2.947409502E0,2.632590815E1
2.245207667E0,1.826032005E1,-1.342723495E1,3.610097841E0,2.295131223E1
2.255276667E0,1.372990555E1,-1.493991315E1,3.831164108E0,2.064919199E1
2.265345667E0,9.966561538E0,-1.742314845E1,5.508880552E0,2.081456740E1
2.275415667E0,6.355716423E0,-2.169596036E1,9.596991781E0,2.456037619E1
2.285484667E0,1.100357693E0,-2.788415756E1,1.501349802E1,3.168820211E1
2.295553667E0,-6.238965068E0,-3.233978969E1,2.147540105E1,3.931894623E1
2.305623667E0,-1.291596260E1,-3.532235850E1,2.563978336E1,4.551801391E1
2.315692667E0,-1.698301333E1,-4.076368149E1,2.641913067E1,5.145941056E1
2.325762667E0,-2.060140135E1,-4.069928727E1,2.691322039E1,5.296386649E1
2.335831667E0,-2.481943304E1,-4.111569323E1,2.846759040E1,5.582927717E1
2.345900667E0,-2.849097459E1,-4.098741467E1,3.119396229E1,5.886227211E1
2.355970667E0,-3.030016860E1,-4.014950399E1,3.278756244E1,6.004254441E1
2.366039667E0,-2.902707772E1,-3.889997973E1,3.154671779E1,5.788760721E1
2.376108667E0,-2.456326418E1,-3.750617894E1,2.693360612E1,5.230187897E1
2.386178667E0,-1.787082064E1,-3.539884709E1,2.083714004E1,4.479543516E1
2.396247667E0,-9.339012626E0,-3.359239192E1,1.529459239E1,3.807348825E1
2.406317667E0,-1.130519970E0,-3.180302698E1,9.852360739E0,3.331335487E1
2.416386667E0,7.609061251E0,-3.118040611E1,7.144490612E0,3.288098667E1
2.426455667E0,1.621082886E1,-3.219975589E1,8.150482430E0,3.696005432E1
2.436525667E0,2.405210526E1,-3.396820650E1,1.258419977E1,4.348223665E1
2.446594667E0,3.008483670E1,-3.562265512E1,1.775075742E1,4.989148571E1
2.456664667E0,3.404995291E1,-3.717375303E1,2.249828489E1,5.520380450E1
2.466733667E0,3.538412147E1,-3.731144327E1,2.572384293E1,5.749692118E1
2.476802667E0,3.498272882E1,-3.625628747E1,2.708524781E1,5.720070232E1
2.486872667E0,3.303907224E1,-3.418402489E1,2.633465009E1,5.434741620E1
2.496941667E0,3.012490182E1,-3.135909702E1,2.352120147E1,4.943834134E1
2.507010667E0,2.757812599E1,-2.893958467E1,1.939145339E1,4.443063198E1
2.517080667E0,2.530703937E1,-2.674697469E1,1.542617579E1,3.992259756E1
2.527149667E0,2.315720060E1,-2.491619978E1,1.234965626E1,3.618821577E1
2.537219667E0,2.020279900E1,-2.345346265E1,1.059292931E1,3.271739826E1
2.547288667E0,1.655016384E1,-2.258539437E1,1.008894610E1,2.976230494E1
2.557357667E0,1.263081845E1,-2.202016508E1,9.888353859E0,2.724343567E1
2.567427667E0,9.294259207E0,-2.184378031E1,9.758697699E0,2.566644061E1
2.577496667E0,6.998341795E0,-2.202031711E1,9.923116726E0,2.514635956E1
2.587566667E0,5.780898871E0,-2.204428134E1,1.072651480E1,2.518783935E1
2.597635667E0,5.289823973E0,-2.129609969E1,1.144302208E1,2.474770401E1
2.607704667E0,5.384012092E0,-2.056581286E1,1.082670918E1,2.385702992E1
2.617774667E0,5.419846753E0,-1.943921579E1,9.729179785E0,2.240345483E1
2.627843667E0,5.268886263E0,-1.805828705E1,8.420057198E0,2.060971268E1
2.637912667E0,4.806786658E0,-1.683499457E1,7.453323001E0,1.902824911E1
2.647982667E0,4.649452118E0,-1.580465670E1,6.059160848E0,1.755329054E1
2.658051667E0,5.634284032E0,-1.556081144E1,4.617527490E0,1.718154735E1
2.668121667E0,6.521076266E0,-1.497793642E1,3.228620229E0,1.665193694E1
2.678190667E0,7.917196067E0,-1.456934820E1,2.188309933E0,1.672532812E1
2.688259667E0,1.026977943E1,-1.409989396E1,1.075871308E0,1.747663807E1
2.698329667E0,1.354326944E1,-1.497409246E1,1.738991171E-1,2.019093443E1
2.708398667E0,1.640771981E1,-1.612306800E1,8.458558774E-1,2.301916731E1
2.718467667E0,1.950438184E1,-1.649493922E1,3.009170133E0,2.572078995E1
2.728537667E0,2.284574515E1,-1.692976741E1,5.534014224E0,2.896843817E1
2.738606667E0,2.583527215E1,-1.838187781E1,8.398174578E0,3.280067157E1
2.748676667E0,2.914320811E1,-1.966649706E1,1.257950914E1,3.734088557E1
2.758745667E0,3.397287726E1,-2.069037960E1,1.795677939E1,4.364280151E1
2.768814667E0,3.998902833E1,-1.997594574E1,2.337342128E1,5.044281532E1
2.778884667E0,4.782409616E1,-1.646394079E1,2.895068268E1,5.827819101E1
2.788953667E0,5.831710240E1,-1.200548914E1,3.222188643E1,6.769982398E1
2.799023667E0,6.917962928E1,-8.377370769E0,3.100233968E1,7.627022036E1
2.809092667E0,7.240044874E1,-5.509260036E0,2.728019398E1,7.756536539E1
2.819161667E0,7.195114869E1,-3.663112791E0,2.346213992E1,7.576845124E1
2.829231667E0,7.092811049E1,-3.449581246E0,2.090446254E1,7.402494864E1
2.839300667E0,6.374553111E1,-4.634676204E0,1.944191486E1,6.680539659E1
2.849370667E0,5.335224094E1,-5.965503071E0,1.879196644E1,5.687870290E1
2.859439667E0,4.355377633E1,-6.886765811E0,1.736028387E1,4.738922274E1
2.869508667E0,3.536575653E1,-7.772761654E0,1.490356686E1,3.915697720E1
2.879578667E0,2.951861806E1,-9.401114734E0,1.266442708E1,3.346815626E1
2.889647667E0,2.567019356E1,-1.223624951E1,1.127043566E1,3.058933408E1
2.899717667E0,2.246187311E1,-1.562484196E1,1.024601167E1,2.921732679E1
2.909783292E0,1.940649594E1,-1.896224905E1,9.421370074E0,2.872178942E1
2.919852292E0,1.628625560E1,-2.185413924E1,7.875622948E0,2.837024780E1
2.929922292E0,1.343754009E1,-2.453488179E1,5.949641329E0,2.859940804E1
2.939991292E0,1.103812579E1,-2.695978995E1,5.180000399E0,2.958889824E1
2.950061292E0,9.351487661E0,-2.867073437E1,5.162429516E0,3.059594760E1
2.960130292E0,8.564748303E0,-2.977822274E1,5.010756251E0,3.138797766E1
2.970199292E0,8.760820062E0,-3.026650735E1,5.242849782E0,3.194214941E1
2.980269292E0,9.832843902E0,-3.059824094E1,5.327775911E0,3.257794291E1
2.990338292E0,1.163032945E1,-3.055086212E1,6.253614682E0,3.328253951E1
3.000407292E0,1.384840522E1,-3.043549656E1,7.044888555E0,3.417203875E1
3.010477292E0,1.640608727E1,-3.043074160E1,7.402943975E0,3.535524450E1
3.020546292E0,1.861689378E1,-3.046034956E1,7.606752185E0,3.650046998E1
3.030616292E0,2.061172754E1,-2.983213407E1,9.154478593E0,3.739791456E1
3.040685292E0,2.275832460E1,-2.882332565E1,1.007623425E1,3.808222600E1
3.050754292E0,2.468773269E1,-2.725883995E1,1.000412756E1,3.811313512E1
3.060824292E0,2.678642001E1,-2.561953562E1,9.070985616E0,3.815960800E1
3.070893292E0,2.935215251E1,-2.422471507E1,7.078971975E0,3.871043169E1
3.080963292E0,3.158403706E1,-2.316860501E1,5.603546389E0,3.956937436E1
3.091032292E0,3.326091560E1,-2.240247709E1,5.653421384E0,4.049840318E1
3.101101292E0,3.432076086E1,-2.122177690E1,6.044790146E0,4.080218044E1
3.111171292E0,3.541284299E1,-2.042478971E1,6.045071397E0,4.132534781E1
3.121240292E0,3.633774854E1,-1.939496757E1,4.698721634E0,4.145690197E1
3.131310292E0,3.617710214E1,-1.868289715E1,2.895911027E0,4.081935406E1
3.141379292E0,3.446858549E1,-1.799463777E1,2.596308176E0,3.896961881E1
3.151448292E0,3.170044109E1,-1.691326423E1,3.270295089E0,3.607868211E1
3.161518292E0,2.918823634E1,-1.681218926E1,3.565669527E0,3.387206589E1
3.171587292E0,2.662073097E1,-1.701365742E1,3.668626131E0,3.180545038E1
3.181657292E0,2.291993463E1,-1.742051019E1,3.350717694E0,2.898318284E1
3.191726292E0,1.766151254E1,-1.864692391E1,2.611842474E0,2.581585787E1
3.201795292E0,1.143379167E1,-2.108577300E1,3.170424646E0,2.419489631E1
3.211865292E0,5.531762461E0,-2.550605052E1,5.181824731E0,2.660846325E1
3.221934292E0,-1.632670079E0,-3.042349573E1,9.321449929E0,3.186132661E1
3.232003292E0,-8.855377141E0,-3.569030273E1,1.488914645E1,3.967243495E1
3.242073292E0,-1.598791546E1,-3.942980530E1,2.046851987E1,4.721528664E1
3.252142292E0,-2.148531793E1,-4.199787435E1,2.319612435E1,5.256900723E1
3.262212292E0,-2.533058727E1,-4.421069464E1,2.011917914E1,5.478143427E1
3.272281292E0,-2.920879749E1,-4.361639767E1,1.623190924E1,5.494559923E1
3.282350292E0,-3.029388401E1,-4.255175068E1,1.332809424E1,5.390741128E1
3.292420292E0,-2.993244422E1,-4.242110985E1,1.332386086E1,5.360062543E1
3.302489292E0,-3.068903183E1,-4.144255726E1,1.605724940E1,5.401053124E1
3.312558292E0,-3.049069427E1,-4.000556425E1,1.870563581E1,5.366589624E1
3.322628292E0,-2.643097011E1,-3.742095694E1,1.907729887E1,4.962728615E1
3.332697292E0,-1.847813117E1,-3.433194074E1,1.601482902E1,4.214971216E1
3.342767292E0,-9.030793025E0,-3.103075948E1,1.121047832E1,3.420728111E1
3.352836292E0,7.350610811E-1,-2.797114542E1,6.971946294E0,2.883631957E1
3.362905292E0,9.862510335E0,-2.570389457E1,4.307489989E0,2.786599677E1
3.372975292E0,1.785889817E1,-2.467331813E1,3.628725316E0,3.067377575E1
3.383044292E0,2.394926210E1,-2.448289537E1,5.998998846E0,3.477020719E1
3.393114292E0,2.750801554E1,-2.473126638E1,9.978137856E0,3.831304857E1
3.403183292E0,2.854463332E1,-2.570579141E1,1.378067692E1,4.081042587E1
3.413252292E0,2.766397715E1,-2.695816209E1,1.752918771E1,4.241828093E1
3.423322292E0,2.574539577E1,-2.724737005E1,2.104064185E1,4.298782604E1
3.433391292E0,2.341339051E1,-2.689805037E1,2.247826870E1,4.215405713E1
3.443461292E0,2.111384665E1,-2.648828452E1,2.103878712E1,3.987548496E1
3.453530292E0,1.885135076E1,-2.612226753E1,1.916426333E1,3.748353339E1
3.463599292E0,1.686587255E1,-2.634233801E1,1.739031517E1,3.578825912E1
3.473669292E0,1.549522907E1,-2.700613732E1,1.660597785E1,3.528727926E1
3.483738292E0,1.425247355E1,-2.751166186E1,1.649996783E1,3.510375306E1
3.493807292E0,1.277656732E1,-2.785930456E1,1.643846915E1,3.477937307E1
3.503877292E0,1.089118643E1,-2.829539692E1,1.625939350E1,3.440371063E1
3.513946292E0,8.774713631E0,-2.901571542E1,1.608382149E1,3.431612819E1
3.524016292E0,6.549618280E0,-2.962003919E1,1.561717626E1,3.411950198E1
3.534085292E0,4.454452738E0,-2.963417542E1,1.551816419E1,3.374670238E1
3.544154292E0,2.679064404E0,-2.974137827E1,1.515664488E1,3.348807028E1
3.554224292E0,1.337758157E0,-2.981791130E1,1.493838118E1,3.337742746E1
3.564293292E0,3.919862276E-1,-2.953107029E1,1.354716135E1,3.249251216E1
3.574363292E0,-1.920792800E-1,-2.912307263E1,1.175512891E1,3.140658068E1
3.584432292E0,-1.056104795E0,-2.824271818E1,1.018152273E1,3.004047092E1
3.594501292E0,-1.685031311E0,-2.721082262E1,8.830380878E0,2.865735201E1
3.604571292E0,-1.434587463E0,-2.645163651E1,7.534068956E0,2.754104773E1
3.614640292E0,-3.042358929E-1,-2.572990766E1,6.447263939E0,2.652711669E1
3.624710292E0,1.545557091E0,-2.515434284E1,5.710917640E0,2.584074865E1
3.634779292E0,3.824937408E0,-2.427974906E1,6.090903043E0,2.532262744E1
3.644848292E0,7.504798379E0,-2.225888819E1,6.561601564E0,2.438923363E1
3.654918292E0,1.376787736E1,-2.022193811E1,5.483629936E0,2.507092789E1
3.664987292E0,2.148679610E1,-1.949789961E1,5.286012173E0,2.949224340E1
3.675056292E0,2.909354186E1,-1.830798889E1,7.783611163E0,3.524487534E1
3.685126292E0,3.608696146E1,-1.646685388E1,1.193782984E1,4.142388014E1
3.695195292E0,4.106554750E1,-1.619651488E1,1.797733001E1,4.766435440E1
3.705265292E0,4.348193510E1,-1.778936074E1,2.473272584E1,5.309282215E1
3.715334292E0,4.338697632E1,-1.757279975E1,3.343917850E1,5.752748616E1
3.725403292E0,4.504713650E1,-1.422368420E1,4.048317886E1,6.221290436E1
3.735473292E0,5.263438997E1,-1.040386661E1,4.106608545E1,6.756510062E1
3.745542292E0,6.437210003E1,-6.830476420E0,3.583760812E1,7.399159970E1
3.755612292E0,7.177548898E1,-3.502932996E0,3.092232170E1,7.823158785E1
3.765681292E0,7.194556811E1,-2.382081982E0,2.819508209E1,7.730977777E1
3.775750292E0,7.049890615E1,-2.811261764E0,2.832482946E1,7.602825083E1
3.785820292E0,6.399771451E1,-5.197674193E0,2.838165972E1,7.020143793E1
3.795889292E0,5.526004240E1,-8.331764826E0,2.787527447E1,6.245095290E1
3.805959292E0,4.619450054E1,-1.080548028E1,2.603997849E1,5.411811863E1
3.816028292E0,3.813596148E1,-1.277605744E1,2.296405538E1,4.631335705E1
3.826097292E0,3.112524815E1,-1.395164249E1,1.998414822E1,3.953220941E1
3.836167292E0,2.524988634E1,-1.476067026E1,1.728885545E1,3.397555989E1
3.846236292E0,2.080639538E1,-1.597136550E1,1.500421498E1,3.021782705E1
3.856306292E0,1.761312800E1,-1.771210265E1,1.233730811E1,2.785946930E1
3.866375292E0,1.539011133E1,-1.971032311E1,9.945172423E0,2.691205712E1
3.876444292E0,1.358301647E1,-2.200284563E1,8.317992879E0,2.716270527E1
3.886514292E0,1.203092219E1,-2.467223289E1,7.634983712E0,2.849131694E1
3.896583292E0,1.027828596E1,-2.716350929E1,7.202664560E0,2.992286376E1
3.906653292E0,8.606730142E0,-2.931111909E1,6.564167322E0,3.124589251E1
3.916722292E0,6.921749117E0,-3.065482328E1,5.245799117E0,3.186137488E1
3.926791292E0,5.425606846E0,-3.085950623E1,3.851589602E0,3.156867240E1
3.936861292E0,4.630930477E0,-3.014107288E1,2.986690512E0,3.064066108E1
3.946930292E0,4.647050081E0,-2.932613708E1,2.609421726E0,2.980648373E1
3.957000292E0,5.425378219E0,-2.878485565E1,2.744044511E0,2.941993242E1
3.967069292E0,6.449905127E0,-2.806499323E1,4.140926789E0,2.909282379E1
3.977138292E0,7.580260205E0,-2.753763052E1,5.621290934E0,2.910979819E1
3.987208292E0,9.085725278E0,-2.783933515E1,6.631144838E0,3.002583999E1
3.997277292E0,1.051121564E1,-2.777819900E1,8.377937949E0,3.085942058E1
4.007347292E0,1.256938527E1,-2.750740041E1,9.281626883E0,3.163534607E1
4.017416292E0,1.600024373E1,-2.740152137E1,8.816841066E0,3.293308153E1
4.027485292E0,1.976865259E1,-2.718259226E1,8.398637093E0,3.464433651E1
4.037555292E0,2.346244865E1,-2.645101670E1,8.140520529E0,3.628237665E1
4.047624292E0,2.668633205E1,-2.579401420E1,7.737317587E0,3.791249886E1
4.057693292E0,2.887723932E1,-2.559393651E1,8.045134315E0,3.941660466E1
4.067763292E0,2.931286156E1,-2.610330852E1,8.849355678E0,4.023602446E1
4.077832292E0,2.855931684E1,-2.687719452E1,1.034800348E1,4.055982421E1
4.087902292E0,2.742608435E1,-2.671718664E1,1.223015086E1,4.019421295E1
4.097971292E0,2.573332945E1,-2.593869302E1,1.284825301E1,3.873109405E1
4.108040292E0,2.381622157E1,-2.448810173E1,1.263646102E1,3.642196704E1
4.118110292E0,2.181065701E1,-2.320963142E1,1.174521320E1,3.394616006E1
4.128179292E0,1.966954229E1,-2.188704737E1,1.090640439E1,3.138285190E1
4.138249292E0,1.689311356E1,-2.071997119E1,9.863877414E0,2.849544822E1
4.148318292E0,1.260964685E1,-1.969867078E1,8.306540523E0,2.482014181E1
4.158387292E0,6.855817083E0,-1.968467956E1,6.648389447E0,2.187898351E1
4.168457292E0,4.104002792E-1,-2.224896663E1,4.379197319E0,2.267955717E1
4.178526292E0,-6.852577141E0,-2.749634917E1,1.802673343E0,2.839465905E1
4.188596292E0,-1.649621392E1,-3.228213614E1,2.475666668E0,3.633717535E1
4.198665292E0,-2.589914713E1,-3.611939246E1,9.128877729E0,4.537303982E1
4.208734292E0,-3.368387745E1,-3.862994128E1,1.847664481E1,5.448176178E1
4.218804292E0,-3.997023771E1,-4.020240960E1,2.588068397E1,6.231904559E1
4.228873292E0,-4.491284700E1,-3.928361555E1,2.780251874E1,6.582815754E1
4.238943292E0,-4.771097358E1,-3.782845407E1,2.552138192E1,6.602022321E1
4.249012292E0,-4.694610632E1,-3.628569663E1,2.319451987E1,6.370694178E1
4.259081292E0,-4.326569103E1,-3.480488927E1,2.199652128E1,5.972559992E1
4.269151292E0,-3.768097794E1,-3.379980435E1,2.077409770E1,5.471604891E1
4.279220292E0,-3.055409680E1,-3.328553004E1,1.885130866E1,4.895764679E1
4.289289292E0,-2.224912100E1,-3.284737946E1,1.652928226E1,4.297895874E1
4.299359292E0,-1.343117598E1,-3.213051082E1,1.350962222E1,3.735339484E1
4.309428292E0,-3.372290411E0,-3.189703384E1,1.122628217E1,3.398267973E1
4.319498292E0,6.589164754E0,-3.187437705E1,1.062768165E1,3.423946001E1
4.329567292E0,1.528972517E1,-3.219265035E1,1.186485425E1,3.756217777E1
4.339636292E0,2.244262641E1,-3.257528747E1,1.408451462E1,4.199040826E1
4.349706292E0,2.775500193E1,-3.238764564E1,1.729841916E1,4.602754640E1
4.359775292E0,3.142935482E1,-3.184823532E1,2.018875165E1,4.908869656E1
4.369845292E0,3.284664271E1,-3.108163728E1,2.133685946E1,5.000231679E1
4.379914292E0,3.288627982E1,-3.023271746E1,2.130254800E1,4.949063706E1
4.389983292E0,3.240936687E1,-2.932422621E1,2.058786622E1,4.831291276E1
4.400053292E0,3.165522107E1,-2.821567832E1,1.887217152E1,4.641482933E1
4.410122292E0,3.047805493E1,-2.653264149E1,1.692625908E1,4.381085646E1
4.420191292E0,2.822580804E1,-2.471843759E1,1.556029688E1,4.061797921E1
4.430261292E0,2.463535333E1,-2.310685374E1,1.451722144E1,3.676380070E1
4.440330292E0,2.009547219E1,-2.177261268E1,1.389762006E1,3.272641913E1
4.450400292E0,1.508826403E1,-2.079974826E1,1.285228408E1,2.873093186E1
4.460469292E0,9.868738790E0,-2.007236399E1,1.157697478E1,2.518567344E1
4.470538292E0,5.203541290E0,-1.954173385E1,1.043906802E1,2.275808307E1
4.480608292E0,1.953443068E0,-2.007827670E1,9.248724600E0,2.219216172E1
4.490677292E0,-1.286896151E-1,-2.184323067E1,8.873174311E0,2.357703352E1
4.500747292E0,-1.988767852E0,-2.314768134E1,1.016308061E1,2.535859926E1
4.510816292E0,-2.870618019E0,-2.309912840E1,1.228181452E1,2.631830444E1
4.520885292E0,-2.623287229E0,-2.274260027E1,1.367745134E1,2.666796164E1
4.530955292E0,-1.896419266E0,-2.176300688E1,1.387076848E1,2.587707658E1
4.541024292E0,-1.022211995E0,-2.028079150E1,1.317990358E1,2.420878517E1
4.551094292E0,1.404325783E-2,-1.825600246E1,1.180477060E1,2.174015713E1
4.561163292E0,1.789435685E0,-1.633435714E1,9.143314505E0,1.880461388E1
4.571232292E0,3.879480820E0,-1.502325468E1,5.276157861E0,1.638860563E1
4.581302292E0,5.115039588E0,-1.485868597E1,2.241048310E0,1.587345193E1
4.591371292E0,4.943405682E0,-1.504554193E1,1.677628005E0,1.592545219E1
4.601441292E0,5.102081573E0,-1.511272761E1,3.090852812E0,1.624743497E1
4.611510292E0,6.271983125E0,-1.527361258E1,5.322819226E0,1.734800905E1
4.621579292E0,8.901936180E0,-1.452709973E1,7.963762708E0,1.880698303E1
4.631649292E0,1.398093938E1,-1.321243281E1,9.389397499E0,2.140550938E1
4.641718292E0,2.108478365E1,-1.236470231E1,8.828837214E0,2.598850383E1
4.651788292E0,2.815698631E1,-1.294948937E1,8.623785886E0,3.216947056E1
4.661857292E0,3.450125739E1,-1.654489549E1,9.942486212E0,3.953382552E1
4.671926292E0,3.816677397E1,-1.925670314E1,1.556799182E1,4.549599565E1
4.681996292E0,4.098643702E1,-1.943353229E1,2.405091945E1,5.134196065E1
4.692065292E0,4.575379824E1,-1.768438217E1,3.210390131E1,5.862429450E1
4.702135292E0,5.295507935E1,-1.439028657E1,3.846923874E1,6.701643907E1
4.712204292E0,6.129885494E1,-1.051539640E1,4.259641405E1,7.538287384E1
4.722273292E0,6.842122202E1,-6.619153368E0,4.246817760E1,8.080113194E1
4.732343292E0,7.216263079E1,-3.588164350E0,3.675828263E1,8.106473677E1
4.742412292E0,7.195636909E1,-3.360643927E0,2.849286441E1,7.746519413E1
4.752482292E0,6.762006928E1,-4.510539815E0,2.136975590E1,7.105972985E1
4.762551292E0,5.795476214E1,-6.599282191E0,1.730322206E1,6.084165081E1
4.772620292E0,4.743020900E1,-9.452287812E0,1.609186258E1,5.096978038E1
4.782690292E0,3.849878823E1,-1.254970354E1,1.577880733E1,4.345828477E1
4.792759292E0,3.162847122E1,-1.525320930E1,1.587352872E1,3.853556150E1
4.802829292E0,2.713585897E1,-1.762984636E1,1.619372692E1,3.618567557E1
4.812898292E0,2.421239382E1,-1.994048589E1,1.660260985E1,3.548957094E1
4.822967292E0,2.122286214E1,-2.184344351E1,1.610055973E1,3.444958528E1
4.833037292E0,1.867108461E1,-2.389371355E1,1.465872055E1,3.368081109E1
4.843106292E0,1.607628326E1,-2.599061396E1,1.209721325E1,3.286793979E1
4.853176292E0,1.309850449E1,-2.800069959E1,9.065732478E0,3.221486462E1
4.863245292E0,1.020993201E1,-2.954072521E1,6.538675801E0,3.193198145E1
4.873314292E0,7.575790594E0,-3.052112319E1,4.569131840E0,3.177748463E1
4.883384292E0,5.569825496E0,-3.110579797E1,3.593026895E0,3.180414227E1
4.893453292E0,4.560958017E0,-3.122143719E1,3.670051097E0,3.176554349E1
4.903523292E0,4.193264047E0,-3.100073988E1,4.091593246E0,3.154949242E1
4.913595792E0,4.270115756E0,-3.033813808E1,4.337299680E0,3.094266762E1
4.923664792E0,5.270842157E0,-2.988080629E1,4.870688539E0,3.073057059E1
4.933734792E0,6.807882194E0,-2.935294539E1,5.496953402E0,3.062938393E1
4.943803792E0,8.527481074E0,-2.849255334E1,6.010107386E0,3.034246068E1
4.953872792E0,1.073407291E1,-2.755228364E1,7.402128289E0,3.048180044E1
4.963942792E0,1.304907564E1,-2.643823469E1,9.255312073E0,3.090177066E1
4.974011792E0,1.543249780E1,-2.566641392E1,1.112607610E1,3.194865194E1
4.984081792E0,1.866502572E1,-2.514678590E1,1.240488438E1,3.368419782E1
4.994150792E0,2.274089990E1,-2.518025302E1,1.275894030E1,3.624892037E1
5.004219792E0,2.711833136E1,-2.534268399E1,1.268256163E1,3.922375425E1
5.014289792E0,3.099794023E1,-2.571057209E1,1.232431793E1,4.211644131E1
5.024358792E0,3.401917083E1,-2.620156513E1,1.265346823E1,4.476534661E1
5.034428792E0,3.558592291E1,-2.604702088E1,1.271496924E1,4.589635769E1
5.044497792E0,3.585953752E1,-2.509785640E1,1.093965634E1,4.511634856E1
5.054566792E0,3.412215199E1,-2.420197876E1,8.815580406E0,4.275244426E1
5.064636792E0,3.069732084E1,-2.320376081E1,7.851734149E0,3.927327020E1
5.074705792E0,2.700612797E1,-2.211792819E1,7.776796233E0,3.576328082E1
5.084775792E0,2.363509588E1,-2.092533476E1,8.482811270E0,3.268708429E1
5.094844792E0,2.060339642E1,-1.946538558E1,8.837329125E0,2.969005837E1
5.104913792E0,1.773527867E1,-1.817882740E1,8.643755296E0,2.682767938E1
5.114983792E0,1.468073532E1,-1.692846232E1,7.584624567E0,2.365635973E1
5.125052792E0,1.102808495E1,-1.584836347E1,5.694853585E0,2.013009289E1
5.135122792E0,7.830550271E0,-1.744232264E1,2.766565647E0,1.931854089E1
5.145191792E0,3.149794500E0,-1.992845700E1,1.792662764E-1,2.017663847E1
5.155260792E0,-1.983811752E0,-2.424181467E1,-7.449738657E-1,2.433425720E1
5.165330792E0,-7.426317635E0,-2.932015888E1,-6.479463387E-1,3.025296258E1
5.175399792E0,-1.381682090E1,-3.404120782E1,2.076770640E0,3.679702903E1
5.185468792E0,-2.082732841E1,-3.894224808E1,7.876302395E0,4.485880553E1
5.195538792E0,-2.728685279E1,-4.097550038E1,1.384351812E1,5.113909425E1
5.205607792E0,-3.078067407E1,-4.172476727E1,1.528296345E1,5.405529643E1
5.215677792E0,-3.170990891E1,-4.104165812E1,1.213497807E1,5.326531439E1
5.225746792E0,-3.107438205E1,-3.954764774E1,8.364123902E0,5.098619647E1
5.235815792E0,-3.005893587E1,-3.773313978E1,6.392828701E0,4.866413178E1
5.245885792E0,-2.935504805E1,-3.522844987E1,5.772490575E0,4.621779067E1
5.255954792E0,-2.788886106E1,-3.295460570E1,5.809392353E0,4.356080403E1
5.266024792E0,-2.469564982E1,-3.128454736E1,6.585675135E0,4.039763780E1
5.276093792E0,-1.951028285E1,-3.014711890E1,8.304502183E0,3.685735573E1
5.286162792E0,-1.300472684E1,-2.862869289E1,1.018179404E1,3.305138283E1
5.296232792E0,-5.888888174E0,-2.743253968E1,1.225122306E1,3.061561209E1
5.306301792E0,7.071096361E-1,-2.701364515E1,1.481821973E1,3.081909577E1
5.316370792E0,6.787680064E0,-2.725159408E1,1.727126703E1,3.296996581E1
5.326440792E0,1.171945622E1,-2.708581850E1,2.066950504E1,3.603075987E1
5.336509792E0,1.578456099E1,-2.674726004E1,2.330840960E1,3.883104741E1
5.346579792E0,1.936358907E1,-2.661092870E1,2.418272271E1,4.083986025E1
5.356648792E0,2.189997907E1,-2.578496738E1,2.337236411E1,4.111862145E1
5.366717792E0,2.341197782E1,-2.436974707E1,2.153428017E1,4.007156723E1
5.376787792E0,2.409666339E1,-2.375227642E1,1.909243146E1,3.885023501E1
5.386856792E0,2.381320441E1,-2.343780380E1,1.671503544E1,3.736029658E1
5.396926792E0,2.223527713E1,-2.305453285E1,1.526741921E1,3.548257492E1
5.406995792E0,1.982801587E1,-2.298855521E1,1.429884548E1,3.355712839E1
5.417064792E0,1.696182302E1,-2.338389482E1,1.379199596E1,3.201139062E1
5.427134792E0,1.379073764E1,-2.405991948E1,1.379392788E1,3.097315961E1
5.437203792E0,1.065804975E1,-2.506009975E1,1.396073140E1,3.060236340E1
5.447273792E0,7.514174974E0,-2.611085844E1,1.460517526E1,3.084721865E1
5.457342792E0,5.062479551E0,-2.709259192E1,1.551484998E1,3.162827542E1
5.467411792E0,3.569912267E0,-2.738131573E1,1.537234866E1,3.160363631E1
5.477481792E0,2.705399678E0,-2.787401148E1,1.504363457E1,3.178978836E1
5.487550792E0,2.185841238E0,-2.767315962E1,1.514089949E1,3.162006487E1
5.497620792E0,2.222954686E0,-2.617092572E1,1.483955739E1,3.016738875E1
5.507689792E0,2.672866355E0,-2.503009184E1,1.342849795E1,2.853023430E1
5.517758792E0,3.126499193E0,-2.405595039E1,1.168214514E1,2.692464042E1
5.527828792E0,3.932567691E0,-2.288831756E1,9.706357518E0,2.517048958E1
5.537897792E0,5.429033314E0,-2.221700107E1,7.702860530E0,2.413303959E1
5.547966792E0,6.438934581E0,-2.195843719E1,6.314256155E0,2.373821125E1
5.558036792E0,6.775061188E0,-2.207190358E1,6.395455855E0,2.395771770E1
5.568105792E0,6.381768107E0,-2.213120137E1,7.926837541E0,2.435881343E1
5.578175792E0,6.023133228E0,-2.111430040E1,1.083601210E1,2.448491318E1
5.588244792E0,6.163861676E0,-1.827146952E1,1.398919097E1,2.382304038E1
5.598313792E0,6.974568186E0,-1.523069402E1,1.520793314E1,2.262520435E1
5.608383792E0,8.686273325E0,-1.196499951E1,1.438443351E1,2.062824484E1
5.618452792E0,1.229424103E1,-9.323595858E0,1.079567099E1,1.883147138E1
5.628522792E0,1.819001780E1,-9.561495089E0,5.260400784E0,2.121251405E1
5.638591792E0,2.372627268E1,-1.217585362E1,2.506146449E0,2.678559681E1
5.648660792E0,2.733250083E1,-1.520409386E1,4.408456786E0,3.158582852E1
5.658730792E0,3.012950241E1,-1.738502461E1,9.077718101E0,3.595039585E1
5.668799792E0,3.364014028E1,-1.845980716E1,1.521021239E1,4.127679832E1
5.678869792E0,3.982245752E1,-1.675906263E1,2.073895827E1,4.792492769E1
5.688938792E0,5.035521080E1,-1.478735462E1,2.388596716E1,5.766153430E1
5.699007792E0,6.205313640E1,-1.245420798E1,2.527700573E1,6.815149340E1
5.709077792E0,6.986059134E1,-1.049839270E1,2.580665822E1,7.521105025E1
5.719146792E0,7.229472641E1,-9.195324318E0,2.605399310E1,7.739439264E1
5.729216792E0,7.212141493E1,-8.548914628E0,2.498553372E1,7.680403198E1
5.739285792E0,6.970694055E1,-8.630662211E0,2.266506385E1,7.380549444E1
5.749354792E0,6.132179006E1,-8.717636620E0,2.143419923E1,6.554223082E1
5.759424792E0,5.023594631E1,-8.902298123E0,2.135029870E1,5.530584479E1
5.769493792E0,3.970916655E1,-9.031677709E0,2.113606140E1,4.588161071E1
5.779563792E0,3.175616740E1,-9.278749468E0,2.012501466E1,3.872422465E1
5.789632792E0,2.636517022E1,-9.937901995E0,1.844374837E1,3.367574722E1
5.799701792E0,2.257518747E1,-1.125152343E1,1.621794024E1,2.998762169E1
5.809771792E0,1.976174586E1,-1.346941209E1,1.388509650E1,2.765406962E1
5.819840792E0,1.710640010E1,-1.621714035E1,1.163464119E1,2.628667801E1
5.829910792E0,1.434416023E1,-1.902815653E1,9.284500204E0,2.557396366E1
5.839979792E0,1.202478262E1,-2.208230461E1,7.746704707E0,2.631035932E1
5.850048792E0,1.011481652E1,-2.499025827E1,6.654305075E0,2.776872877E1
5.860118792E0,8.220846069E0,-2.797283644E1,5.634334903E0,2.969524572E1
5.870187792E0,6.076165720E0,-3.025676589E1,5.115830716E0,3.128199795E1
5.880257792E0,4.667537556E0,-3.207965876E1,5.323895699E0,3.285170130E1
5.890326792E0,3.988290487E0,-3.266109653E1,6.609025991E0,3.356088366E1
5.900395792E0,3.927574754E0,-3.207634923E1,8.207977517E0,3.334199932E1
5.910462333E0,4.963898419E0,-3.142698787E1,9.067200129E0,3.308337909E1
5.920531333E0,6.410583771E0,-3.081979896E1,9.652991735E0,3.292621815E1
5.930601333E0,8.213376836E0,-3.007578053E1,1.111071663E1,3.309773644E1
5.940670333E0,1.003870682E1,-2.961138063E1,1.172503095E1,3.339290117E1
5.950739333E0,1.228090002E1,-2.931018120E1,1.171686356E1,3.387022466E1
5.960809333E0,1.495616256E1,-2.865738635E1,1.098681296E1,3.414150919E1
5.970878333E0,1.741064594E1,-2.775969373E1,9.916516389E0,3.423548576E1
5.980948333E0,1.935565440E1,-2.644109281E1,8.942386633E0,3.396673409E1
5.991017333E0,2.100237300E1,-2.520551533E1,8.350715067E0,3.385486843E1
6.001086333E0,2.257722698E1,-2.375969303E1,8.127718050E0,3.376853552E1
6.011156333E0,2.399789456E1,-2.232287777E1,8.234463065E0,3.379373015E1
6.021225333E0,2.608952078E1,-2.121095721E1,8.372957876E0,3.465074637E1
6.031294333E0,2.853534794E1,-2.011658298E1,8.558015819E0,3.594694184E1
6.041364333E0,3.019127239E1,-1.930887667E1,8.148969755E0,3.675256937E1
6.051433333E0,3.122697099E1,-1.885078007E1,7.073718252E0,3.715525692E1
6.061503333E0,3.073450913E1,-1.844533648E1,6.795829328E0,3.648319868E1
6.071572333E0,2.854587994E1,-1.763670748E1,6.905635945E0,3.425797017E1
6.081641333E0,2.534990647E1,-1.691831389E1,6.360264387E0,3.113358422E1
6.091711333E0,2.099275082E1,-1.572947320E1,6.007838666E0,2.691107652E1
6.101780333E0,1.613674581E1,-1.481283912E1,5.438861314E0,2.256980240E1
6.111850333E0,1.137774143E1,-1.430261459E1,4.208603632E0,1.875446957E1
6.121919333E0,7.072281007E0,-1.521363652E1,2.617143559E0,1.698002754E1
6.131988333E0,3.155185048E0,-1.900596985E1,8.033221344E-1,1.928282679E1
6.142058333E0,-2.373463186E0,-2.425064162E1,-7.095524566E-1,2.437684170E1
6.152127333E0,-1.145436802E1,-2.866750671E1,-1.336068896E0,3.090005773E1
6.162197333E0,-2.075128420E1,-3.182023183E1,3.951656511E-1,3.799077659E1
6.172266333E0,-2.618377322E1,-3.627936293E1,3.145082814E0,4.485168559E1
6.182335333E0,-2.979207830E1,-3.942099237E1,6.997705618E0,4.990541507E1
6.192405333E0,-3.417133877E1,-3.960771502E1,1.010561183E1,5.327827769E1
6.202474333E0,-3.898766692E1,-3.868649321E1,1.136945475E1,5.608874602E1
6.212543333E0,-4.180195988E1,-3.750640815E1,1.134584837E1,5.729627193E1
6.222613333E0,-4.120853765E1,-3.536383631E1,1.024289861E1,5.525994450E1
6.232682333E0,-3.777263889E1,-3.307047880E1,9.296969976E0,5.105744283E1
6.242752333E0,-3.249087940E1,-3.118375071E1,8.995992737E0,4.592397455E1
6.252821333E0,-2.577128958E1,-2.961943809E1,8.575944552E0,4.018727789E1
6.262890333E0,-1.818790111E1,-2.845815066E1,7.840669463E0,3.467192212E1
6.272960333E0,-1.051529583E1,-2.722332630E1,7.191605136E0,3.005661534E1
6.283029333E0,-2.536865966E0,-2.646728833E1,7.147183839E0,2.753244046E1
6.293099333E0,5.678400689E0,-2.678411855E1,7.775968852E0,2.846223695E1
6.303168333E0,1.339741181E1,-2.702509867E1,9.334933024E0,3.157511007E1
6.313237333E0,2.018268926E1,-2.772936773E1,1.157297294E1,3.619658110E1
6.323307333E0,2.497260202E1,-2.837056405E1,1.423118734E1,4.038621608E1
6.333376333E0,2.752381238E1,-2.874504780E1,1.670292585E1,4.316046516E1
6.343446333E0,2.737459143E1,-2.966797232E1,1.861417366E1,4.445271981E1
6.353515333E0,2.533163042E1,-3.055219529E1,2.096877022E1,4.488671809E1
6.363584333E0,2.245669715E1,-3.048921142E1,2.212627801E1,4.385735330E1
6.373654333E0,2.040509629E1,-3.048550663E1,2.125851379E1,4.239880278E1
6.383723333E0,1.904386449E1,-3.027763811E1,1.908157903E1,4.054023683E1
6.393792333E0,1.865769916E1,-3.019956375E1,1.642056615E1,3.911212576E1
6.403862333E0,1.844100603E1,-2.990666268E1,1.382378844E1,3.775680472E1
6.413931333E0,1.712663732E1,-2.932252350E1,1.159526487E1,3.588289645E1
6.424001333E0,1.476937560E1,-2.913772342E1,1.009503539E1,3.419138957E1
6.434070333E0,1.121213308E1,-2.962336040E1,9.898835578E0,3.318497183E1
6.444139333E0,7.122265345E0,-3.053178851E1,1.130177908E1,3.332637069E1
6.454209333E0,4.112163166E0,-3.118448278E1,1.378706559E1,3.434334040E1
6.464278333E0,2.912750716E0,-3.175511958E1,1.539892309E1,3.541184220E1
6.474348333E0,2.876613754E0,-3.160301245E1,1.596051307E1,3.552130741E1
6.484417333E0,3.264858933E0,-3.074800919E1,1.526497390E1,3.448360191E1
6.494486333E0,4.004477334E0,-2.925712824E1,1.327633937E1,3.237709960E1
6.504556333E0,4.405394599E0,-2.724767177E1,1.061740225E1,2.957316941E1
6.514625333E0,4.857044061E0,-2.487732983E1,7.864279935E0,2.653901496E1
6.524695333E0,5.443850158E0,-2.311186831E1,5.229385398E0,2.431337971E1
6.534764333E0,5.906060277E0,-2.284435118E1,3.554503099E0,2.386169359E1
6.544833333E0,6.718558958E0,-2.387409029E1,3.045431056E0,2.498771442E1
6.554903333E0,6.981939186E0,-2.481747773E1,3.926113242E0,2.607813338E1
6.564972333E0,6.762275081E0,-2.424148255E1,6.688654543E0,2.604065936E1
6.575042333E0,8.775082591E0,-2.332663654E1,9.394285187E0,2.663431322E1
6.585111333E0,1.358732821E1,-2.250600555E1,1.006505555E1,2.815033067E1
6.595180333E0,2.024730801E1,-2.208974929E1,9.361527330E0,3.139344994E1
6.605250333E0,2.772735863E1,-2.221396987E1,9.702511804E0,3.682941229E1
6.615319333E0,3.570664453E1,-2.235358267E1,1.293697633E1,4.406827065E1
6.625389333E0,4.353896650E1,-2.169788760E1,1.855282935E1,5.206387815E1
6.635458333E0,4.954444991E1,-1.887428120E1,2.361989779E1,5.804128341E1
6.645527333E0,5.494563060E1,-1.383950576E1,2.472549635E1,6.182155296E1
6.655597333E0,5.995009875E1,-8.201398230E0,2.250480804E1,6.455806424E1
6.665666333E0,6.313061452E1,-4.218923383E0,2.119087554E1,6.672575972E1
6.675736333E0,6.336425991E1,-5.690861106E-1,2.362240976E1,6.762670726E1
6.685805333E0,6.302104706E1,1.775753785E0,2.619602197E1,6.827178949E1
6.695874333E0,6.366764620E1,2.596449094E0,2.576420275E1,6.873212396E1
6.705944333E0,6.354713274E1,2.615124516E0,2.374960307E1,6.789050451E1
6.716013333E0,6.075073694E1,2.175810340E0,2.294395265E1,6.497546578E1
6.726083333E0,5.462498800E1,6.854299146E-1,2.364661255E1,5.952748452E1
6.736152333E0,4.665633702E1,-1.626784857E0,2.456821794E1,5.275469217E1
6.746221333E0,3.877578721E1,-3.802112802E0,2.450541884E1,4.602752751E1
6.756291333E0,3.249108756E1,-6.238982610E0,2.193625052E1,3.969628146E1
6.766360333E0,2.779312577E1,-8.959582125E0,1.774867347E1,3.417231865E1
6.776430333E0,2.387551467E1,-1.155715388E1,1.387311555E1,2.993445075E1
6.786499333E0,2.043120528E1,-1.403481328E1,1.026615416E1,2.682916425E1
6.796568333E0,1.760382274E1,-1.660433595E1,7.122149570E0,2.522545464E1
6.806638333E0,1.517856960E1,-1.910557366E1,4.917094966E0,2.489155967E1
6.816707333E0,1.319757971E1,-2.168621188E1,3.439439836E0,2.561830678E1
6.826777333E0,1.216943572E1,-2.453861700E1,2.101861627E0,2.747101585E1
6.836846333E0,1.099810978E1,-2.712024223E1,1.359929629E0,2.929701974E1
6.846915333E0,8.953753620E0,-2.877782495E1,1.671476880E0,3.018487615E1
6.856985333E0,6.759630386E0,-2.945666096E1,2.162660683E0,3.029958051E1
6.867054333E0,4.925065890E0,-2.951275681E1,2.337470065E0,3.001204517E1
6.877124333E0,3.807321501E0,-2.889961778E1,2.761701933E0,2.927986684E1
6.887193333E0,3.544072251E0,-2.781796474E1,3.234929960E0,2.822878642E1
6.897262333E0,3.628601355E0,-2.649327804E1,3.953398689E0,2.703127615E1
6.907332333E0,3.841037132E0,-2.530264460E1,5.169049734E0,2.610931759E1
6.917401167E0,5.274843407E0,-2.489315005E1,7.397159325E0,2.649926147E1
6.927470167E0,7.215752383E0,-2.398976927E1,9.992654153E0,2.697089633E1
6.937540167E0,9.926578277E0,-2.272345882E1,1.131710580E1,2.725746542E1
6.947609167E0,1.401414572E1,-2.146409487E1,1.158021413E1,2.812836661E1
6.957679167E0,1.904362943E1,-1.961301842E1,1.074926866E1,2.937476962E1
6.967748167E0,2.399311855E1,-1.760594879E1,9.883462079E0,3.135796539E1
6.977817167E0,2.885059706E1,-1.608732748E1,9.717894074E0,3.443249224E1
6.987887167E0,3.383763350E1,-1.585175018E1,1.081375409E1,3.889988049E1
6.997956167E0,3.761473133E1,-1.645366724E1,1.269785444E1,4.297472147E1
7.008026167E0,4.001434443E1,-1.762312440E1,1.379949677E1,4.584919176E1
7.018095167E0,4.079934015E1,-1.847140804E1,1.465262190E1,4.712195242E1
7.028164167E0,3.939105931E1,-1.873967362E1,1.444298987E1,4.595030878E1
7.038234167E0,3.562701013E1,-1.843039333E1,1.265946162E1,4.206215897E1
7.048303167E0,3.104566287E1,-1.769735948E1,1.031292603E1,3.719389948E1
7.058373167E0,2.661983751E1,-1.665263746E1,7.746344519E0,3.234087100E1
7.068442167E0,2.245853552E1,-1.578993809E1,5.884495161E0,2.807730838E1
7.078511167E0,1.841944033E1,-1.491217981E1,4.331910593E0,2.409178984E1
7.088581167E0,1.455785257E1,-1.463377282E1,2.875490212E0,2.084098900E1
7.098650167E0,1.011619763E1,-1.545765954E1,1.306053384E0,1.851978586E1
7.108720167E0,5.567148641E0,-1.895172172E1,-9.590458395E-1,1.977575964E1
7.118789167E0,-8.989181900E-1,-2.452766633E1,-4.546330915E0,2.496164246E1
7.128858167E0,-1.049616608E1,-3.046648212E1,-5.016777129E0,3.261202367E1
7.138928167E0,-2.091190254E1,-3.651442567E1,-2.259295716E0,4.213923786E1
7.148997167E0,-2.887821697E1,-4.161625699E1,1.356130693E0,5.067251081E1
7.159067167E0,-3.359760062E1,-4.716789355E1,5.264109088E0,5.814911688E1
7.169136167E0,-3.836806554E1,-4.873774465E1,9.811968173E0,6.279929081E1
7.179205167E0,-4.349893880E1,-4.798302815E1,1.437174271E1,6.634060338E1
7.189275167E0,-4.446972161E1,-4.669707574E1,1.170406518E1,6.553745620E1
7.199344167E0,-4.271925236E1,-4.423234337E1,9.136814740E0,6.216844944E1
7.209413167E0,-3.804132547E1,-4.193891570E1,7.016496230E0,5.705476591E1
7.219483167E0,-3.003146331E1,-3.921739934E1,4.782832662E0,4.962629029E1
7.229552167E0,-2.094540474E1,-3.656048302E1,3.406073284E0,4.227268898E1
7.239622167E0,-1.158679576E1,-3.401859781E1,3.073678078E0,3.606891084E1
7.249691167E0,-2.319202779E0,-3.248483572E1,3.318453342E0,3.273614800E1
7.259760167E0,5.907781112E0,-3.220589780E1,4.729706614E0,3.308310529E1
7.269830167E0,1.233293088E1,-3.149708429E1,8.158461540E0,3.479551692E1
7.279899167E0,1.731761206E1,-3.095027841E1,1.305520936E1,3.779229965E1
7.289969167E0,2.109388894E1,-3.067065754E1,1.709381807E1,4.096144529E1
7.300038167E0,2.322866761E1,-3.054615161E1,1.965884188E1,4.311737981E1
7.310107167E0,2.403226449E1,-2.953043178E1,2.133369261E1,4.364312750E1
7.320177167E0,2.442715737E1,-2.795600347E1,2.072934779E1,4.251976020E1
7.330246167E0,2.453109280E1,-2.623927499E1,1.864558139E1,4.047136977E1
7.340316167E0,2.442852094E1,-2.474119261E1,1.605689974E1,3.829756228E1
7.350385167E0,2.371211540E1,-2.424788642E1,1.401289792E1,3.669585427E1
7.360454167E0,2.189499958E1,-2.391948807E1,1.289409869E1,3.489685799E1
7.370524167E0,1.910716644E1,-2.432269102E1,1.320005425E1,3.362913231E1
7.380593167E0,1.568261362E1,-2.499543423E1,1.450164796E1,3.287877576E1
7.390663167E0,1.247478316E1,-2.596498912E1,1.625780656E1,3.307744170E1
7.400732167E0,9.698207084E0,-2.657298494E1,1.764826743E1,3.334126711E1
7.410801167E0,7.317119129E0,-2.642903117E1,1.831515874E1,3.297694590E1
7.420871167E0,5.656936730E0,-2.597819915E1,1.843870339E1,3.235511624E1
7.430940167E0,4.837356486E0,-2.585577015E1,1.713054794E1,3.139070787E1
7.441009167E0,4.319720610E0,-2.530979925E1,1.589455881E1,3.019739930E1
7.451079167E0,4.053316787E0,-2.470808334E1,1.476402890E1,2.906708291E1
7.461148167E0,4.437407520E0,-2.431768580E1,1.320293459E1,2.802423790E1
7.471218167E0,5.643993334E0,-2.394452585E1,1.200670653E1,2.737436722E1
7.481287167E0,6.561768794E0,-2.335071771E1,1.067446873E1,2.650013415E1
7.491356167E0,6.715188038E0,-2.227264785E1,9.718931370E0,2.521154933E1
7.501426167E0,5.909340565E0,-2.103668446E1,9.395428317E0,2.378521541E1
7.511495167E0,4.672586042E0,-1.964731351E1,8.908299705E0,2.207278397E1
7.521565167E0,4.265666610E0,-1.854253474E1,7.468327541E0,2.044009351E1
7.531634167E0,4.674141401E0,-1.735740353E1,5.773126752E0,1.888004364E1
7.541703167E0,5.487062252E0,-1.680534919E1,4.275953909E0,1.818822134E1
7.551773167E0,6.125359515E0,-1.647997971E1,3.202037033E0,1.787072470E1
7.561842167E0,7.485217223E0,-1.587566295E1,3.060243807E0,1.781657215E1
7.571912167E0,9.584608548E0,-1.554563441E1,3.290204859E0,1.855685636E1
7.581981167E0,1.294588982E1,-1.499628148E1,4.741618270E0,2.037075024E1
7.592050167E0,1.737873651E1,-1.379556744E1,7.347533421E0,2.337358362E1
7.602120167E0,2.388849549E1,-1.401509530E1,9.290988275E0,2.921310624E1
7.612189167E0,3.072678379E1,-1.537071612E1,1.060084176E1,3.595513875E1
7.622259167E0,3.566087252E1,-1.603199879E1,1.302337946E1,4.121081444E1
7.632328167E0,3.928281097E1,-1.563905420E1,1.778191607E1,4.586846186E1
7.642397167E0,4.369420774E1,-1.408786975E1,2.359913316E1,5.161948227E1
7.652467167E0,5.044467788E1,-1.140246579E1,2.901862031E1,5.930229403E1
7.662536167E0,5.861097410E1,-8.373834958E0,3.160994023E1,6.711598705E1
7.672606167E0,6.577141358E1,-5.040881106E0,3.228948024E1,7.344317437E1
7.682675167E0,7.124590899E1,-2.919052261E0,3.082321607E1,7.768250166E1
7.692744167E0,7.220191004E1,-3.145381606E0,2.987034212E1,7.820004206E1
7.702814167E0,6.908237371E1,-3.713608761E0,2.797108227E1,7.462269555E1
7.712883167E0,6.170518965E1,-4.972375127E0,2.571416228E1,6.703337292E1
7.722953167E0,5.181350638E1,-5.859864934E0,2.440030462E1,5.757041190E1
7.733022167E0,4.202498672E1,-6.855371525E0,2.276892443E1,4.828581103E1
7.743091167E0,3.385469801E1,-7.975026199E0,1.978546685E1,4.001507614E1
7.753161167E0,2.772994778E1,-9.366792163E0,1.635593921E1,3.352914473E1
7.763230167E0,2.342027385E1,-1.108939417E1,1.285401486E1,2.892593280E1
7.773300167E0,2.011033347E1,-1.302965235E1,9.775037159E0,2.587950356E1
7.783369167E0,1.741848355E1,-1.522891880E1,7.271500322E0,2.425279889E1
7.793438167E0,1.543973197E1,-1.768590128E1,5.418952714E0,2.409442832E1
7.803508167E0,1.382792944E1,-1.998354479E1,4.813431433E0,2.477342966E1
7.813577167E0,1.226615100E1,-2.187015593E1,4.864221518E0,2.554256902E1
7.823647167E0,1.100676834E1,-2.415360123E1,4.739360660E0,2.696306624E1
7.833716167E0,9.937366390E0,-2.617800085E1,4.904460887E0,2.842697163E1
7.843785167E0,9.336812319E0,-2.778122084E1,5.707826217E0,2.985886093E1
7.853855167E0,8.973000900E0,-2.892827381E1,6.649020946E0,3.100918010E1
7.863924167E0,8.725836171E0,-2.968459011E1,7.556331060E0,3.184985472E1
7.873994167E0,9.063245657E0,-3.006076020E1,8.559894530E0,3.254325614E1
7.884063167E0,1.020781181E1,-3.021560149E1,8.732687938E0,3.306723203E1
7.894132167E0,1.182949497E1,-2.992303255E1,9.176300987E0,3.345936831E1
7.904202167E0,1.445631684E1,-2.944922798E1,1.008130730E1,3.432018185E1
7.914270917E0,1.829731655E1,-2.900535883E1,1.106133806E1,3.603409265E1
7.924340917E0,2.204512334E1,-2.850698426E1,1.216469947E1,3.803439927E1
7.934409917E0,2.570480907E1,-2.802519708E1,1.315467284E1,4.023921345E1
7.944478917E0,2.944199147E1,-2.807464114E1,1.337331310E1,4.282361311E1
7.954548917E0,3.112092589E1,-2.786160602E1,1.405269056E1,4.407107022E1
7.964617917E0,3.088384234E1,-2.772477884E1,1.524890926E1,4.421543071E1
7.974687917E0,2.924491925E1,-2.728481562E1,1.597807226E1,4.307000416E1
7.984756917E0,2.700703312E1,-2.663159743E1,1.659515465E1,4.140073644E1
7.994825917E0,2.502142393E1,-2.564139251E1,1.646167675E1,3.942764851E1
8.004895917E0,2.307562259E1,-2.406790678E1,1.562662653E1,3.682308992E1
8.014964917E0,2.104917177E1,-2.234099946E1,1.462475758E1,3.400105033E1
8.025034917E0,1.882921905E1,-2.067451728E1,1.294430172E1,3.081444631E1
8.035103917E0,1.567252366E1,-1.904118763E1,1.077972797E1,2.691463096E1
8.045172917E0,1.155301522E1,-1.737647949E1,8.809923225E0,2.265014233E1
8.055242917E0,7.534399323E0,-1.614462785E1,6.505984018E0,1.896691883E1
8.065311917E0,4.218300655E0,-1.648106729E1,5.618403579E0,1.791608490E1
8.075381917E0,3.570865363E-1,-1.830590845E1,7.182522072E0,1.966780156E1
8.085450917E0,-4.248637179E0,-2.181467521E1,9.708168401E0,2.425241238E1
8.095519917E0,-9.587604661E0,-2.522056139E1,1.152774590E1,2.934088965E1
8.105589917E0,-1.533383656E1,-2.614713457E1,1.365537927E1,3.324557975E1
8.115658917E0,-1.800807233E1,-2.879926553E1,1.570181704E1,3.741971970E1
8.125727917E0,-1.950864563E1,-3.108656063E1,1.703383499E1,4.046125357E1
8.135797917E0,-2.108179222E1,-3.219826836E1,1.841347149E1,4.266411115E1
8.145866917E0,-2.205094950E1,-3.290587501E1,1.932981087E1,4.407587290E1
8.155936917E0,-2.278177194E1,-3.239259472E1,1.988593838E1,4.431410465E1
8.166005917E0,-2.302960266E1,-3.130801574E1,2.005373242E1,4.373450163E1
8.176074917E0,-2.344732775E1,-2.979647073E1,1.964655338E1,4.270355847E1
8.186144917E0,-2.441299775E1,-2.800355303E1,1.912808778E1,4.178608840E1
8.196213917E0,-2.416920394E1,-2.672990316E1,1.852699401E1,4.052021285E1
8.206283917E0,-2.164537727E1,-2.604167418E1,1.813020430E1,3.841087684E1
8.216352917E0,-1.727411579E1,-2.546305010E1,1.738420483E1,3.534080608E1
8.226421917E0,-1.200219131E1,-2.484937078E1,1.659018101E1,3.219903617E1
8.236491917E0,-6.585189232E0,-2.452340254E1,1.649969418E1,3.028203919E1
8.246560917E0,-1.085047928E0,-2.455733510E1,1.632511503E1,2.950846348E1
8.256630917E0,4.128117294E0,-2.509371423E1,1.690402680E1,3.053656772E1
8.266699917E0,9.058624018E0,-2.610442183E1,1.855861809E1,3.328545949E1
8.276768917E0,1.392908042E1,-2.735285850E1,2.015797425E1,3.672250094E1
8.286838917E0,1.877612633E1,-2.838864598E1,2.111342566E1,4.005290106E1
8.296907917E0,2.385273626E1,-2.913185047E1,2.189562640E1,4.355497899E1
8.306977917E0,2.859087778E1,-2.941180346E1,2.185581388E1,4.647761908E1
8.317046917E0,3.196076147E1,-2.922663384E1,2.136315322E1,4.829151804E1
8.327115917E0,3.427561334E1,-2.819055400E1,2.118725494E1,4.917748241E1
8.337185917E0,3.400078719E1,-2.642095734E1,2.003364139E1,4.749176037E1
8.347254917E0,3.083104900E1,-2.425294777E1,1.886032039E1,4.352551830E1
8.357324917E0,2.568574013E1,-2.241332251E1,1.792719949E1,3.851621417E1
8.367393917E0,1.945965414E1,-2.109493910E1,1.659344609E1,3.315142604E1
8.377462917E0,1.331025556E1,-2.032707806E1,1.548314170E1,2.881112081E1
8.387532917E0,8.084021807E0,-1.991648658E1,1.430924416E1,2.582193476E1
8.397601917E0,4.115713595E0,-1.992184029E1,1.353721757E1,2.443511978E1
8.407671917E0,1.473612950E0,-1.982040981E1,1.318781369E1,2.385243405E1
8.417740917E0,-1.780909860E-1,-1.964689485E1,1.214503178E1,2.309835472E1
8.427809917E0,-1.150727947E0,-1.920975701E1,1.072011093E1,2.202861134E1
8.437879917E0,-1.071675346E0,-1.903076672E1,9.508189532E0,2.130080370E1
8.447948917E0,-6.738278693E-1,-1.887027703E1,8.784187290E0,2.082554550E1
8.458018917E0,-2.438540357E-1,-1.835192604E1,8.834581518E0,2.036915523E1
8.468087917E0,4.714522272E-1,-1.775769924E1,8.686297299E0,1.977397052E1
8.478156917E0,1.842012094E0,-1.702079453E1,7.756801679E0,1.879543634E1
8.488226917E0,3.187731820E0,-1.606871228E1,6.355308287E0,1.757142829E1
8.498295917E0,4.239099786E0,-1.529235407E1,4.997918104E0,1.663746512E1
8.508365917E0,5.601685220E0,-1.561597173E1,3.366512192E0,1.692840379E1
8.518434917E0,6.922320975E0,-1.627875830E1,3.277595338E0,1.799052892E1
8.528503917E0,8.192207576E0,-1.613600789E1,5.284583699E0,1.885231658E1
8.538573917E0,1.022452315E1,-1.493531607E1,8.215640293E0,1.987715486E1
8.548642917E0,1.403971793E1,-1.319752241E1,1.088547604E1,2.213101592E1
8.558712917E0,2.025109232E1,-1.199674405E1,1.232594931E1,2.656986327E1
8.568781917E0,2.687579119E1,-1.193386309E1,1.305273833E1,3.217295788E1
8.578850917E0,3.248862705E1,-1.241869316E1,1.554810895E1,3.809827449E1
8.588920917E0,3.694135194E1,-1.196685659E1,2.037619467E1,4.385269033E1
8.598989917E0,4.154682949E1,-1.070928189E1,2.573179982E1,5.002952409E1
8.609059917E0,4.652315148E1,-8.294399949E0,2.988841703E1,5.591527669E1
8.619128917E0,5.186853102E1,-4.396504492E0,3.326844214E1,6.177752831E1
8.629197917E0,6.011008325E1,4.163106447E-1,3.357495786E1,6.885254693E1
8.639267917E0,6.944739434E1,2.849064013E0,3.259543697E1,7.676926636E1
8.649336917E0,6.399494994E1,-2.306036603E-1,3.830716328E1,7.458448602E1
8.659406917E0,5.981706290E1,-1.313063611E0,3.718183155E1,7.044355008E1
8.669475917E0,6.139799097E1,-5.907325614E0,2.734663940E1,6.747183470E1
8.679544917E0,5.842934555E1,-9.064187644E0,2.275279080E1,6.335485307E1
8.689614917E0,5.137559203E1,-1.239337706E1,2.139312839E1,5.701502603E1
8.699683917E0,4.374026041E1,-1.520869211E1,2.005820437E1,5.046628834E1
8.709753917E0,3.734865495E1,-1.706527430E1,1.742146329E1,4.460552652E1
8.719822917E0,3.249272010E1,-1.862986992E1,1.351182896E1,3.981731326E1
8.729891917E0,2.828197171E1,-2.046793047E1,1.035321452E1,3.641421635E1
8.739961917E0,2.379455647E1,-2.201315778E1,8.452257814E0,3.349926409E1
8.750030917E0,1.956654242E1,-2.342205141E1,7.183413187E0,3.135352451E1
8.760100917E0,1.602322562E1,-2.485916837E1,6.213244336E0,3.022129079E1
8.770169917E0,1.309280462E1,-2.646041903E1,5.213021965E0,2.997917454E1
8.780238917E0,1.085368823E1,-2.801975683E1,4.368614151E0,3.036435593E1
8.790308917E0,9.164972591E0,-2.941707531E1,3.964943724E0,3.106576607E1
8.800377917E0,7.795611404E0,-3.057032867E1,3.525259712E0,3.174498399E1
8.810447917E0,6.681542575E0,-3.125779284E1,3.256823105E0,3.212941831E1
8.820516917E0,6.152663088E0,-3.160749141E1,3.290463890E0,3.236844033E1
8.830585917E0,6.216766698E0,-3.163070252E1,3.742075346E0,3.245231360E1
8.840655917E0,6.590982068E0,-3.116084600E1,3.966613104E0,3.209631424E1
8.850724917E0,7.224876963E0,-3.069031354E1,4.538331631E0,3.185420924E1
8.860794917E0,7.790796221E0,-2.956530223E1,5.335987741E0,3.103669388E1
8.870863917E0,8.856072375E0,-2.810697390E1,6.455055354E0,3.016785938E1
8.880932917E0,1.038325401E1,-2.652587510E1,7.587039467E0,2.947875814E1
8.891002917E0,1.199551964E1,-2.486045944E1,8.703170024E0,2.894270380E1
8.901071917E0,1.437501365E1,-2.349321670E1,9.286088893E0,2.906550696E1
8.911141917E0,1.754182120E1,-2.224174649E1,9.298341733E0,2.981392187E1
8.921211583E0,2.098154054E1,-2.076531284E1,8.346879879E0,3.067724995E1
8.931280583E0,2.436556514E1,-1.957775971E1,7.415382757E0,3.212409285E1
8.941350583E0,2.798671539E1,-1.892284817E1,7.566744366E0,3.462060140E1
8.951419583E0,3.149112481E1,-1.880354275E1,8.425109192E0,3.763305232E1
8.961489583E0,3.408759729E1,-1.916606194E1,9.127328217E0,4.015731987E1
8.971558583E0,3.482687714E1,-1.962823288E1,9.886927139E0,4.118167342E1
8.981627583E0,3.338317153E1,-1.992740450E1,1.025365281E1,4.020789707E1
8.991697583E0,3.017844126E1,-2.022394253E1,1.022387645E1,3.773955244E1
9.001766583E0,2.600072029E1,-1.971634808E1,1.014608158E1,3.417184233E1
9.011836583E0,2.185268679E1,-1.914432550E1,9.369636834E0,3.052597604E1
9.021905583E0,1.798083366E1,-1.887646338E1,8.587957656E0,2.744784629E1
9.031974583E0,1.400643441E1,-1.915951656E1,8.102075086E0,2.507809603E1
9.042044583E0,9.276840352E0,-2.017433943E1,7.398189020E0,2.340506226E1
9.052113583E0,3.163590420E0,-2.163363606E1,6.378490158E0,2.277515423E1
9.062183583E0,-4.084897599E0,-2.390719489E1,5.464221858E0,2.486157832E1
9.072252583E0,-1.146772657E1,-2.717079024E1,5.723635919E0,3.004198068E1
9.082321583E0,-1.869142707E1,-3.004824950E1,7.501453772E0,3.617372738E1
9.092391583E0,-2.484648459E1,-3.251586104E1,1.009219014E1,4.214832521E1
9.102460583E0,-2.943190619E1,-3.393182746E1,1.325653602E1,4.683312678E1
9.112530583E0,-3.119058260E1,-3.543831580E1,1.476179878E1,4.946349535E1
9.122599583E0,-3.161683760E1,-3.621151651E1,1.333115818E1,4.988605143E1
9.132668583E0,-3.158901187E1,-3.490214250E1,1.141770832E1,4.843954258E1
9.142738583E0,-3.112498152E1,-3.344148932E1,1.011600701E1,4.679135903E1
9.152807583E0,-3.156034181E1,-3.199646457E1,1.029776070E1,4.610718811E1
9.162876583E0,-3.173057998E1,-3.109526363E1,1.203776110E1,4.602882595E1
9.172946583E0,-3.029408048E1,-2.999765939E1,1.229068124E1,4.436949094E1
9.183015583E0,-2.639656509E1,-2.886559634E1,1.085344967E1,4.059308648E1
9.193085583E0,-2.051834750E1,-2.775913240E1,8.906539693E0,3.564966290E1
9.203154583E0,-1.380373249E1,-2.658694809E1,7.409841936E0,3.085959490E1
9.213223583E0,-7.276451159E0,-2.570977921E1,6.861878892E0,2.758667922E1
9.223293583E0,-1.298726823E0,-2.566957609E1,7.412445701E0,2.674991924E1
9.233362583E0,3.839149943E0,-2.599589049E1,9.216525153E0,2.784725714E1
9.243432583E0,8.553100650E0,-2.688833932E1,1.271861089E1,3.094998198E1
9.253501583E0,1.265401904E1,-2.775017447E1,1.653938040E1,3.469506427E1
9.263570583E0,1.567393986E1,-2.875195921E1,1.898321483E1,3.785115579E1
9.273640583E0,1.808580405E1,-2.960637775E1,2.021606049E1,4.015374221E1
9.283709583E0,2.019583614E1,-3.007437018E1,2.076214365E1,4.175411534E1
9.293779583E0,2.211832580E1,-2.953590945E1,2.054526107E1,4.223384940E1
9.303848583E0,2.433392469E1,-2.841062683E1,1.822704705E1,4.161164322E1
9.313917583E0,2.690821751E1,-2.758803585E1,1.507316652E1,4.138057806E1
9.323987583E0,2.799517514E1,-2.696999451E1,1.342847456E1,4.112705149E1
9.334056583E0,2.658550266E1,-2.604422123E1,1.352777900E1,3.959913150E1
9.344126583E0,2.325216640E1,-2.538128029E1,1.526961776E1,3.765679033E1
9.354195583E0,1.852045215E1,-2.492494955E1,1.667529776E1,3.524664258E1
9.364264583E0,1.363503681E1,-2.415617869E1,1.712814122E1,3.260074262E1
9.374334583E0,9.544532901E0,-2.338413806E1,1.688764758E1,3.038270333E1
9.384403583E0,6.508874297E0,-2.282694051E1,1.593664941E1,2.859040839E1
9.394473583E0,4.428992792E0,-2.217404041E1,1.493607621E1,2.709963870E1
9.404542583E0,2.752323584E0,-2.126632801E1,1.353868171E1,2.535996637E1
9.414611583E0,1.429957638E0,-2.024355877E1,1.190620225E1,2.352879306E1
9.424681583E0,4.956930292E-1,-1.926720006E1,1.026104603E1,2.183482941E1
9.434750583E0,-2.087011600E-1,-1.810909936E1,8.598860375E0,2.004802822E1
9.444820583E0,-8.414277810E-1,-1.706633147E1,6.731634502E0,1.836525453E1
9.454889583E0,-1.037906506E0,-1.668791839E1,4.906553020E0,1.742521543E1
9.464958583E0,-6.311683381E-1,-1.693445571E1,3.542578288E0,1.731253952E1
9.475028583E0,-1.388327801E-1,-1.704351681E1,2.686540069E0,1.725451353E1
9.485097583E0,6.626304513E-1,-1.725660338E1,2.564316305E0,1.745866998E1
9.495167583E0,2.172291486E0,-1.810057645E1,2.754761288E0,1.843741923E1
9.505236583E0,4.149773626E0,-1.905622082E1,3.423741816E0,1.980106515E1
9.515305583E0,6.382962109E0,-1.952122416E1,4.070157938E0,2.093768334E1
9.525375583E0,8.988605365E0,-2.011394705E1,4.097451571E0,2.240881527E1
9.535444583E0,1.198108053E1,-2.000807035E1,4.805745268E0,2.381101336E1
9.545514583E0,1.645772520E1,-1.980256644E1,5.129468762E0,2.625471018E1
9.555583583E0,2.267402880E1,-1.997348290E1,6.114385461E0,3.082916332E1
9.565652583E0,3.069856279E1,-2.110232530E1,7.374469789E0,3.797489559E1
9.575722583E0,3.883413541E1,-2.219463430E1,9.433781959E0,4.571310651E1
9.585791583E0,4.582092427E1,-2.178692199E1,1.391453255E1,5.261027739E1
9.595861583E0,5.228939489E1,-2.011285479E1,1.969327263E1,5.938461697E1
9.605930583E0,5.917738687E1,-1.711737767E1,2.433378903E1,6.623519475E1
9.615999583E0,6.564778005E1,-1.245050202E1,2.691642466E1,7.203568520E1
9.626069583E0,7.045006084E1,-6.955506263E0,2.756181226E1,7.596870168E1
9.636138583E0,7.125636849E1,-3.088921477E0,2.686858274E1,7.621635143E1
9.646208583E0,6.917848791E1,-1.848027710E0,2.494306422E1,7.356109602E1
9.656277583E0,6.521818746E1,-2.262447365E0,2.149740061E1,6.870712391E1
9.666346583E0,5.995281654E1,-3.745393640E0,1.806498679E1,6.272728220E1
9.676416583E0,5.302287898E1,-5.444952943E0,1.547500472E1,5.550269344E1
9.686485583E0,4.502781730E1,-7.316884071E0,1.407319441E1,4.773987771E1
9.696555583E0,3.709453262E1,-9.769256601E0,1.327865252E1,4.059267591E1
9.706624583E0,3.028258251E1,-1.231959455E1,1.221343952E1,3.489950313E1
9.716693583E0,2.515125083E1,-1.504168160E1,1.113291500E1,3.134931259E1
9.726763583E0,2.128418540E1,-1.776336051E1,1.051312417E1,2.964927157E1
9.736832583E0,1.778688152E1,-2.003987218E1,9.612923689E0,2.846713778E1
9.746902583E0,1.463456102E1,-2.212170081E1,8.317628013E0,2.779789486E1
9.756971583E0,1.210930763E1,-2.427259207E1,6.891757579E0,2.798732534E1
9.767040583E0,9.660031198E0,-2.594864966E1,5.504498649E0,2.823026970E1
9.777110583E0,7.627444312E0,-2.706143093E1,4.742383670E0,2.851296466E1
9.787179583E0,6.237305043E0,-2.790159162E1,4.280120927E0,2.890886066E1
9.797249583E0,5.630336577E0,-2.830750299E1,4.071872926E0,2.914782264E1
9.807318583E0,5.505640610E0,-2.842792289E1,4.333302523E0,2.927859951E1
9.817387583E0,5.719381485E0,-2.862986233E1,4.992185494E0,2.961928861E1
9.827457583E0,6.098917236E0,-2.876384777E1,6.237296273E0,3.005760461E1
9.837526583E0,6.900238380E0,-2.911252893E1,7.568958707E0,3.086165528E1
9.847596583E0,8.645514139E0,-2.971534178E1,8.805485188E0,3.217581423E1
9.857665583E0,1.098563416E1,-3.012953749E1,9.642598894E0,3.348810088E1
9.867734583E0,1.336269339E1,-2.987096426E1,1.059135641E1,3.439495473E1
9.877804583E0,1.608181122E1,-2.932984889E1,1.187282050E1,3.549406365E1
9.887873583E0,1.868700658E1,-2.900620083E1,1.310494578E1,3.690939589E1
9.897943583E0,2.072970564E1,-2.865603213E1,1.542945140E1,3.858700356E1
9.908012583E0,2.242644132E1,-2.806684563E1,1.690398704E1,3.970438102E1
9.918081417E0,2.388812127E1,-2.692647018E1,1.669311539E1,3.967791874E1
9.928151417E0,2.487346365E1,-2.547844231E1,1.495090007E1,3.861825513E1
9.938220417E0,2.544946584E1,-2.395027016E1,1.265250461E1,3.716687538E1
9.948290417E0,2.585343360E1,-2.259157838E1,1.098804088E1,3.604880699E1
9.958359417E0,2.582245505E1,-2.130464364E1,1.065611900E1,3.513175057E1
9.968428417E0,2.538120311E1,-2.015651010E1,1.090282823E1,3.419593593E1
9.978498417E0,2.440715755E1,-1.874472912E1,1.079609316E1,3.261333833E1
9.988567417E0,2.304528022E1,-1.769825878E1,1.008999743E1,3.075908569E1
9.998637417E0,2.126419728E1,-1.689376845E1,9.999199526E0,2.894044729E1