"Time (s)","Linear Acceleration x (m/s^2)","Linear Acceleration y (m/s^2)","Linear Acceleration z (m/s^2)","Absolute acceleration (m/s^2)"
4.973166680E-3,-1.037263897E-1,5.344881356E-2,2.688292845E-1,2.930616382E-1
1.504316664E-2,-1.043862480E-1,-3.677898645E-3,3.694715238E-1,3.839521097E-1
2.511316666E-2,-1.303984639E-1,-2.453374743E-2,4.022837957E-1,4.236011289E-1
3.518316668E-2,-1.162289062E-1,-1.870582759E-2,4.738478315E-1,4.882528382E-1
4.525316664E-2,-1.326791704E-1,-5.037551701E-2,4.684754097E-1,4.895004234E-1
5.532316666E-2,-1.435868588E-1,-7.024961829E-2,3.884165756E-1,4.200233697E-1
6.539416668E-2,-1.480707961E-1,-7.204354405E-3,3.152737550E-1,3.483882948E-1
7.546416664E-2,-1.717426640E-1,7.742298245E-3,1.676045895E-1,2.400974473E-1
8.553416666E-2,-1.978484353E-1,-1.476421952E-3,3.420741756E-2,2.007892691E-1
9.560416668E-2,-1.745715469E-1,3.496108711E-2,-4.226601362E-2,1.829861156E-1
1.056741666E-1,-1.373177665E-1,5.729745090E-2,-8.948231656E-2,1.736267602E-1
1.157441667E-1,-1.115572733E-1,7.023207664E-2,-6.356387537E-2,1.463486797E-1
1.258141667E-1,-8.792458177E-2,7.331706762E-2,2.338886261E-6,1.144819833E-1
1.358841666E-1,-9.491229683E-2,6.743067563E-2,-5.390197277E-2,1.282991145E-1
1.459541667E-1,-4.065072030E-2,8.919225812E-2,-3.725728869E-2,1.048610773E-1
1.560241667E-1,-3.154572845E-4,1.196328628E-1,-5.486438792E-2,1.316139143E-1
1.660941666E-1,5.564999789E-2,1.390280771E-1,-3.840688784E-2,1.545988924E-1
1.761641667E-1,9.475032896E-2,1.407436502E-1,-3.995398801E-2,1.743064000E-1
1.862341667E-1,1.121808788E-1,1.399028206E-1,-6.403395496E-2,1.904145377E-1
1.963041667E-1,1.219296491E-1,1.429609144E-1,-9.446878552E-2,2.103069514E-1
2.063741666E-1,1.142195106E-1,1.332837725E-1,-1.750410783E-1,2.478911852E-1
2.164441667E-1,1.197518536E-1,1.501676077E-1,-2.021791756E-1,2.788677749E-1
2.265141667E-1,1.402407897E-1,9.199365914E-2,-1.408840199E-1,2.190402234E-1
2.365841666E-1,1.235721320E-1,5.137889922E-2,8.221221752E-3,1.340800193E-1
2.466541667E-1,1.498594594E-1,4.511594653E-2,1.005031121E-1,1.859951121E-1
2.567241667E-1,1.435623005E-1,1.391228020E-2,7.015960772E-2,1.603934420E-1
2.667941666E-1,1.188680470E-1,5.926796257E-2,7.700783014E-3,1.330473827E-1
2.768641667E-1,1.802123559E-1,9.905300260E-2,3.002070151E-2,2.078201940E-1
2.869341667E-1,2.335629362E-1,9.941494524E-2,2.510790747E-2,2.550791711E-1
2.970041666E-1,2.735991141E-1,1.104948342E-1,-7.687919140E-3,2.951689139E-1
3.070741667E-1,3.282094771E-1,1.044675243E-1,-3.852262616E-2,3.465817612E-1
3.171441667E-1,3.621999264E-1,5.604205370E-2,-1.757018137E-1,4.064487985E-1
3.272141666E-1,3.561594602E-1,-0.000000000E0,-4.014978568E-1,5.367029813E-1
3.372841667E-1,3.898981869E-1,2.551374078E-2,-3.871710821E-1,5.500663541E-1
3.473541667E-1,4.145804536E-1,8.692997038E-2,-3.509101589E-1,5.500651888E-1
3.574241666E-1,4.035426646E-1,5.132568955E-2,-4.511617677E-1,6.074767067E-1
3.674941667E-1,4.193684462E-1,1.077793872E-1,-2.654284708E-1,5.078765234E-1
3.775641667E-1,4.366873142E-1,1.722086871E-1,-1.527620538E-1,4.936475335E-1
3.876341667E-1,4.849256739E-1,9.406006515E-2,-3.144936268E-1,5.855821431E-1
3.977041667E-1,4.999954104E-1,5.634260058E-2,-2.934261453E-1,5.824678548E-1
4.077741667E-1,4.139162099E-1,1.407202613E-1,-1.625268308E-1,4.664158998E-1
4.178441667E-1,3.580717921E-1,1.636998188E-1,-2.771404803E-1,4.814767750E-1
4.279141666E-1,3.012327629E-1,1.384211361E-1,-4.001015782E-1,5.195987503E-1
4.379841667E-1,2.706228814E-1,1.492952031E-1,-3.292367963E-1,4.515779773E-1
4.480541667E-1,2.047934657E-1,1.737792492E-1,-3.728886000E-1,4.595492347E-1
4.581241666E-1,2.102500874E-1,1.067011607E-1,-3.615707294E-1,4.316522087E-1
4.681941667E-1,2.158578596E-1,3.623285651E-2,-2.335027099E-1,3.200483572E-1
4.782641667E-1,2.041993886E-1,-2.226912081E-2,-2.269655228E-1,3.061154236E-1
4.883341666E-1,1.975569516E-1,-7.336033702E-2,-2.081514851E-1,2.962052143E-1
4.984041667E-1,1.553377157E-1,-1.081366521E-1,-1.633945942E-1,2.500422662E-1
5.084741667E-1,1.078062844E-1,-1.071315157E-1,-1.214536858E-1,1.945516754E-1
5.185441666E-1,5.192210555E-2,-1.249117291E-1,-1.767707213E-1,2.225909545E-1
5.286141667E-1,3.828055143E-2,-1.819548261E-1,-2.248535085E-1,2.917739873E-1
5.386841667E-1,9.142823339E-2,-2.520301974E-1,-1.796031125E-1,3.227005117E-1
5.487541666E-1,2.092382267E-1,-3.170793021E-1,-1.206140256E-1,3.985820649E-1
5.588241667E-1,4.251285383E-1,-3.641289228E-1,-5.297811270E-2,5.622551262E-1
5.688941667E-1,6.360835075E-1,-5.132323372E-1,-2.951674461E-2,8.178513916E-1
5.789641666E-1,8.017026749E-1,-6.750932068E-1,1.437105640E-1,1.057889759E0
5.890341667E-1,8.308718026E-1,-8.194668084E-1,2.035193574E-1,1.184607079E0
5.991041667E-1,8.013351774E-1,-8.758298743E-1,4.537649846E-1,1.270873202E0
6.091741667E-1,6.548039532E-1,-8.371417719E-1,8.701544206E-1,1.373587740E0
6.192441666E-1,4.609941897E-1,-7.054466879E-1,1.170322625E0,1.442160088E0
6.293141667E-1,2.871669933E-1,-5.942513573E-1,1.471210914E0,1.612470499E0
6.393841667E-1,4.853188992E-5,-4.602507162E-1,1.743160236E0,1.802897205E0
6.494541666E-1,-3.187258780E-1,-2.050051349E-1,2.069120289E0,2.103537987E0
6.595241667E-1,-6.777770787E-1,9.901791930E-2,2.237775038E0,2.340261404E0
6.695941667E-1,-1.145926799E0,4.813486397E-1,2.016252104E0,2.368568616E0
6.796641666E-1,-1.526734904E0,8.573906797E-1,1.498092903E0,2.304413286E0
6.897341667E-1,-1.853705941E0,1.229817386E0,7.901949160E-1,2.360738131E0
6.998041667E-1,-2.180692180E0,1.266058429E0,2.983117864E-2,2.521747852E0
7.098741666E-1,-2.530956770E0,1.409590032E0,-2.511181779E-1,2.907876643E0
7.199441667E-1,-2.688379603E0,1.661229635E0,-1.632237824E-1,3.164444784E0
7.300141667E-1,-3.151457448E0,2.309006989E0,-3.816793406E-1,3.925414174E0
7.400841666E-1,-3.423924249E0,3.021697792E0,-5.485999520E-1,4.599443088E0
7.501541667E-1,-3.259342085E0,3.257087399E0,-9.457403541E-1,4.703865854E0
7.602241667E-1,-3.249305924E0,3.513770810E0,-1.236282653E0,4.942971687E0
7.702941666E-1,-3.326410233E0,4.070660799E0,-1.644161174E0,5.508044149E0
7.803641667E-1,-3.035634046E0,4.400339681E0,-2.394681416E0,5.857692588E0
7.904341667E-1,-2.786230418E0,4.545390390E0,-3.367368225E0,6.305776915E0
8.005041667E-1,-2.637421119E0,4.878019193E0,-4.150230879E0,6.926433263E0
8.105741667E-1,-2.341538558E0,4.794065455E0,-4.988664300E0,7.304289008E0
8.206441667E-1,-1.938291178E0,4.310183802E0,-6.015323102E0,7.649756148E0
8.307141667E-1,-1.482088489E0,4.118063006E0,-6.764649636E0,8.057016439E0
8.407841666E-1,-1.002620314E0,3.935989482E0,-7.502990420E0,8.531830163E0
8.508534583E-1,-3.584810972E-2,3.031149817E0,-8.336785830E0,8.870803361E0
8.609234584E-1,1.475184097E0,1.608611126E0,-9.107866344E0,9.365736876E0
8.709934583E-1,3.578662625E0,6.800715262E-1,-9.902883021E0,1.055160725E1
8.810634583E-1,6.530678564E0,-3.630074269E-1,-1.087694846E1,1.269210560E1
8.911334584E-1,9.925232248E0,-1.792963895E0,-1.171880718E1,1.546141638E1
9.012034583E-1,1.372195333E1,-3.268440937E0,-1.226711930E1,1.869376702E1
9.112734583E-1,1.810423330E1,-4.673864243E0,-1.277939854E1,2.264776584E1
9.213434584E-1,2.262090568E1,-6.174421747E0,-1.282160842E1,2.672494154E1
9.314134583E-1,2.644927189E1,-7.415490346E0,-1.256891281E1,3.020812887E1
9.414834583E-1,2.930442052E1,-7.999486856E0,-1.308463022E1,3.307489078E1
9.515534583E-1,3.128531451E1,-8.208540604E0,-1.395980403E1,3.522821556E1
9.616234583E-1,3.171810670E1,-8.580415918E0,-1.494781742E1,3.609846362E1
9.716934583E-1,3.142659026E1,-8.835341656E0,-1.548198512E1,3.613012179E1
9.817634583E-1,3.111951086E1,-9.366603298E0,-1.464557835E1,3.564618042E1
9.918344583E-1,3.089043333E1,-1.001869180E1,-1.274097064E1,3.488445771E1
1.001904458E0,3.067969032E1,-1.083757097E1,-9.787343209E0,3.397776375E1
1.011974458E0,3.027616929E1,-1.118821913E1,-6.210765116E0,3.286938207E1
1.022044458E0,2.893435726E1,-1.156229359E1,-2.797740662E0,3.128435736E1
1.032114458E0,2.639297022E1,-1.159997071E1,4.684580143E-1,2.883344673E1
1.042184458E0,2.385447873E1,-1.147190967E1,3.149085817E0,2.665628647E1
1.052254458E0,2.195427866E1,-1.209631395E1,4.748680537E0,2.551198011E1
1.062324458E0,2.012166538E1,-1.283132766E1,6.333568339E0,2.469085813E1
1.072394458E0,1.838398632E1,-1.399411432E1,6.701744120E0,2.405659084E1
1.082464458E0,1.639751175E1,-1.495510539E1,5.863635803E0,2.295464644E1
1.092534458E0,1.482137138E1,-1.705757118E1,5.142340822E0,2.317493157E1
1.102604458E0,1.379307302E1,-1.896779572E1,3.959301746E0,2.378449512E1
1.112674458E0,1.284965868E1,-2.116129798E1,2.929920773E0,2.492987558E1
1.122744458E0,1.204702776E1,-2.336746648E1,2.161275916E0,2.637878847E1
1.132814458E0,1.179463153E1,-2.518784504E1,1.158531057E0,2.783672152E1
1.142884458E0,1.222581457E1,-2.651748317E1,7.803799260E-1,2.921055372E1
1.152954458E0,1.267225182E1,-2.700766695E1,7.436982957E-1,2.984213678E1
1.163024458E0,1.304999365E1,-2.727694527E1,7.247217420E-1,3.024664112E1
1.173094458E0,1.407648639E1,-2.773066581E1,1.067137614E0,3.111713480E1
1.183164458E0,1.571848044E1,-2.764614548E1,1.926587976E0,3.186050421E1
1.193234458E0,1.766920397E1,-2.729498042E1,2.897991759E0,3.264376022E1
1.203304458E0,1.957144589E1,-2.705342960E1,3.275929759E0,3.355087575E1
1.213374458E0,2.176779224E1,-2.622199764E1,2.326376435E0,3.415906858E1
1.223444458E0,2.503438370E1,-2.514485631E1,7.999853477E-1,3.549118402E1
1.233514458E0,2.746485373E1,-2.404891502E1,-1.185994259E0,3.652499263E1
1.243584458E0,3.054072071E1,-2.251020619E1,-3.176005229E0,3.807272007E1
1.253654458E0,3.419557431E1,-2.025235532E1,-3.449155569E0,3.989225329E1
1.263724458E0,3.469136908E1,-1.983430981E1,-3.646080437E0,4.012710851E1
1.273794458E0,3.614864257E1,-2.110948229E1,-2.200216033E0,4.191867786E1
1.283864458E0,3.605996604E1,-2.021596225E1,6.003277107E-1,4.134448783E1
1.293934458E0,3.534079594E1,-2.057834929E1,1.992926391E0,4.094401144E1
1.304004458E0,3.362250742E1,-2.020919819E1,2.132677184E0,3.928654997E1
1.314074458E0,3.101199226E1,-1.897435513E1,1.506043362E0,3.638733273E1
1.324144458E0,2.807271156E1,-1.801266708E1,-2.773463388E-1,3.335581254E1
1.334214458E0,2.491568756E1,-1.710834138E1,-1.045903085E0,3.024203605E1
1.344284458E0,2.084636694E1,-1.661804884E1,-1.380667949E0,2.669525812E1
1.354354458E0,1.529791244E1,-1.722523073E1,-1.902102760E0,2.311607003E1
1.364424458E0,8.638396908E0,-1.903832483E1,-1.547836336E0,2.096367122E1
1.374494458E0,2.574945374E0,-2.225876890E1,4.446247633E-1,2.241162261E1
1.384564458E0,-2.747511910E0,-2.808215130E1,3.343814178E0,2.841367869E1
1.394634458E0,-8.930781080E0,-3.371788954E1,7.800373961E0,3.574214263E1
1.404704458E0,-1.463400905E1,-3.729102713E1,1.176205318E1,4.175069844E1
1.414774458E0,-1.893718671E1,-3.931655175E1,1.519515464E1,4.620931731E1
1.424844458E0,-2.178151916E1,-4.073755613E1,1.840738922E1,4.972740727E1
1.434914458E0,-2.310525160E1,-4.227829278E1,2.059055126E1,5.239539572E1
1.444984458E0,-2.318853700E1,-4.343170986E1,2.056203088E1,5.335558812E1
1.455054458E0,-2.268518295E1,-4.270322631E1,1.900201012E1,5.195439780E1
1.465124458E0,-2.205486012E1,-4.080360160E1,1.748632645E1,4.956936928E1
1.475194458E0,-2.234227416E1,-3.886822233E1,1.662443400E1,4.781514120E1
1.485264458E0,-2.231762464E1,-3.679646261E1,1.628575976E1,4.601393268E1
1.495334458E0,-2.050062576E1,-3.471727459E1,1.522087888E1,4.309570704E1
1.505404458E0,-1.671342511E1,-3.305463051E1,1.305795639E1,3.927413146E1
1.515474458E0,-1.107896742E1,-3.196297172E1,1.095814406E1,3.555919011E1
1.525544458E0,-4.240180936E0,-3.147856265E1,9.060651248E0,3.302990224E1
1.535614458E0,2.810300481E0,-3.185710203E1,7.580347914E0,3.286691974E1
1.545684458E0,9.001839952E0,-3.333643122E1,7.499238846E0,3.533538386E1
1.555754458E0,1.461593647E1,-3.576076869E1,9.950289906E0,3.989318796E1
1.565824458E0,1.952046402E1,-3.881325851E1,1.284786944E1,4.530546656E1
1.575894458E0,2.369947606E1,-4.127195889E1,1.596609716E1,5.019916349E1
1.585964458E0,2.675749032E1,-4.444150529E1,1.809439127E1,5.494012811E1
1.596034458E0,2.866972865E1,-4.743721630E1,2.064088877E1,5.914633649E1
1.606104458E0,2.976429935E1,-4.889515170E1,2.360334316E1,6.191742229E1
1.616174458E0,2.960820208E1,-4.914677844E1,2.382198926E1,6.212518518E1
1.626244458E0,2.760471913E1,-4.870675909E1,2.326168099E1,6.062569341E1
1.636314458E0,2.270463781E1,-4.591851664E1,2.259282969E1,5.598612955E1
1.646384458E0,1.678227374E1,-4.417213576E1,2.139957903E1,5.187257727E1
1.656454458E0,1.189505629E1,-4.225320120E1,1.993290556E1,4.820939846E1
1.666524458E0,8.366323040E0,-3.978640125E1,1.873443334E1,4.476529994E1
1.676594458E0,6.324175957E0,-3.733204885E1,1.713954329E1,4.156249532E1
1.686664458E0,6.320470576E0,-3.527322083E1,1.521944514E1,3.893301898E1
1.696734458E0,7.259436346E0,-3.327425427E1,1.295176744E1,3.643657082E1
1.706804458E0,8.851471201E0,-3.114378616E1,1.080715726E1,3.413324782E1
1.716874458E0,1.182844247E1,-2.881506704E1,7.907870343E0,3.213649877E1
1.726944458E0,1.470080764E1,-2.563322044E1,4.480472848E0,2.988729450E1
1.737014458E0,1.570287539E1,-2.223355337E1,1.295811401E0,2.725051042E1
1.747084458E0,1.580905615E1,-1.903882886E1,-1.518829468E0,2.479334797E1
1.757154458E0,1.615560191E1,-1.551227838E1,-4.083074437E0,2.276632931E1
1.767224458E0,1.807283609E1,-1.244269481E1,-6.033319078E0,2.275629578E1
1.777294458E0,2.137431906E1,-1.054853023E1,-5.183970074E0,2.439275612E1
1.787364458E0,2.568620791E1,-9.396150448E0,-1.910676825E0,2.741750547E1
1.797434458E0,2.974485619E1,-9.855007188E0,1.228495331E0,3.135899930E1
1.807504458E0,3.170042004E1,-1.094123041E1,6.211456257E0,3.410585496E1
1.817574458E0,3.257391922E1,-1.094833360E1,1.236192255E1,3.652045113E1
1.827644458E0,3.409318255E1,-1.041439862E1,1.942477199E1,4.059712504E1
1.837714458E0,3.871567783E1,-8.773489809E0,2.647236138E1,4.771439773E1
1.847784583E0,4.747734691E1,-7.823109105E0,3.136517812E1,5.743756527E1
1.857854583E0,5.709326145E1,-6.741106406E0,3.058606470E1,6.511981551E1
1.867925583E0,6.396434328E1,-4.548161970E0,2.606487594E1,6.922066704E1
1.877995583E0,6.780465418E1,-2.673053466E0,1.940002307E1,7.057603870E1
1.888065583E0,6.645899001E1,-2.163632344E0,1.442268833E1,6.804037475E1
1.898135583E0,6.054411037E1,-3.795266297E0,1.286585781E1,6.201228624E1
1.908205583E0,5.254783247E1,-5.539926344E0,1.440438070E1,5.476724993E1
1.918275583E0,4.608779119E1,-7.048887466E0,1.635782318E1,4.941001610E1
1.928345583E0,4.287067185E1,-9.042158259E0,1.806098145E1,4.739044400E1
1.938415583E0,4.133900073E1,-1.173770772E1,1.992379092E1,4.736712160E1
1.948485583E0,3.946318588E1,-1.436846243E1,2.097065536E1,4.694213607E1
1.958555583E0,3.669553031E1,-1.614538799E1,2.074167372E1,4.513814935E1
1.968625583E0,3.265012481E1,-1.711665963E1,1.978465993E1,4.183830130E1
1.978695583E0,2.749705084E1,-1.770059416E1,1.728733985E1,3.698987642E1
1.988765583E0,2.244844790E1,-1.876485407E1,1.328858227E1,3.213470056E1
1.998835583E0,1.790660794E1,-2.014506125E1,9.372418939E0,2.853615842E1
2.008905583E0,1.417019387E1,-2.185293004E1,5.952357945E0,2.671657745E1
2.018975583E0,1.119334130E1,-2.377088460E1,3.650637757E0,2.652683547E1
2.029045583E0,8.646000627E0,-2.558576678E1,2.376480349E0,2.711148184E1
2.039115583E0,6.986067905E0,-2.712394936E1,2.068023790E0,2.808541430E1
2.049185583E0,6.030526448E0,-2.829833222E1,2.689320420E0,2.905848069E1
2.059255583E0,5.773950040E0,-2.929566373E1,4.052508702E0,3.013299254E1
2.069325583E0,6.429223525E0,-3.055287123E1,4.790547770E0,3.158737411E1
2.079395583E0,7.730076395E0,-3.124647263E1,5.611103915E0,3.267385223E1
2.089465583E0,9.508842081E0,-3.175593117E1,6.343192856E0,3.375045685E1
2.099535583E0,1.149930738E1,-3.243829422E1,6.808002062E0,3.508312834E1
2.109605583E0,1.403351871E1,-3.270605927E1,6.947397344E0,3.626144358E1
2.119675583E0,1.645521090E1,-3.278134568E1,6.813686725E0,3.730706257E1
2.129745583E0,1.846983280E1,-3.240739052E1,7.083753244E0,3.796779219E1
2.139815583E0,2.084068813E1,-3.178219686E1,7.265493477E0,3.869405270E1
2.149885583E0,2.311803128E1,-3.077708622E1,6.929408970E0,3.911124026E1
2.159955583E0,2.474453254E1,-3.032790779E1,7.282055715E0,3.981334220E1
2.170025583E0,2.602707252E1,-3.010344020E1,7.880993031E0,4.056766775E1
2.180095583E0,2.693373944E1,-2.995232710E1,8.233647963E0,4.111400221E1
2.190165583E0,2.732364581E1,-2.988171144E1,9.048009567E0,4.148933328E1
2.200235583E0,2.713380543E1,-2.916454576E1,8.959925357E0,4.083006722E1
2.210305583E0,2.574500517E1,-2.818935649E1,7.842280371E0,3.897366383E1
2.220375583E0,2.340441386E1,-2.695441753E1,6.689429884E0,3.631880622E1
2.230445583E0,2.084807667E1,-2.556025889E1,5.818573067E0,3.349365504E1
2.240515583E0,1.815071750E1,-2.414938890E1,5.098653935E0,3.063719638E1
2.250585583E0,1.532144397E1,-2.293650096E1,5.018274601E0,2.803591984E1
2.260655583E0,1.245874074E1,-2.196442007E1,5.332603372E0,2.580877038E1
2.270725583E0,9.586321782E0,-2.133680333E1,5.592954158E0,2.405073549E1
2.280795583E0,5.871469318E0,-2.091261590E1,5.905503037E0,2.250970061E1
2.290865583E0,7.223275995E-1,-2.155631248E1,6.556231481E0,2.254285998E1
2.300935583E0,-4.964170314E0,-2.465182143E1,9.014065896E0,2.671345486E1
2.311005583E0,-1.099232221E1,-3.136307078E1,1.401608933E1,3.606832567E1
2.321075583E0,-1.893921102E1,-3.652742053E1,2.125700988E1,4.631205711E1
2.331145583E0,-2.796769089E1,-3.671983134E1,2.856161129E1,5.427986171E1
2.341215583E0,-3.301923615E1,-3.621502484E1,3.190185662E1,5.847671704E1
2.351285583E0,-3.301958698E1,-3.675533096E1,2.971972252E1,5.765855864E1
2.361355583E0,-3.051760082E1,-3.560252666E1,2.595004130E1,5.359354913E1
2.371425583E0,-2.810593778E1,-3.393334306E1,2.312799727E1,4.976263425E1
2.381495583E0,-2.750846460E1,-3.232745206E1,2.155017758E1,4.760451591E1
2.391565583E0,-2.719841249E1,-3.098603530E1,1.952104991E1,4.561753407E1
2.401635583E0,-2.566211037E1,-2.999444810E1,1.676944378E1,4.288851909E1
2.411705583E0,-2.191016024E1,-2.913892794E1,1.411062127E1,3.909273431E1
2.421775583E0,-1.620056349E1,-2.844779641E1,1.136391393E1,3.465362777E1
2.431845583E0,-1.052049985E1,-2.798317431E1,8.346234931E0,3.103866298E1
2.441915583E0,-4.952071840E0,-2.786840984E1,6.630126838E0,2.907111736E1
2.451985583E0,4.197780436E-1,-2.848716688E1,6.552406817E0,2.923403711E1
2.462055583E0,5.972967042E0,-3.016620187E1,8.317535042E0,3.185682752E1
2.472125583E0,1.169856996E1,-3.225616281E1,1.167000398E1,3.624231741E1
2.482195583E0,1.720559812E1,-3.458274653E1,1.583930263E1,4.174784392E1
2.492265583E0,2.218969457E1,-3.618080928E1,1.942657177E1,4.667788765E1
2.502335583E0,2.620105759E1,-3.687008140E1,2.021650955E1,4.954397622E1
2.512405583E0,2.935275828E1,-3.634819869E1,1.862374438E1,5.029532604E1
2.522475583E0,3.167895842E1,-3.486076994E1,1.635286592E1,4.986226941E1
2.532545583E0,3.245368877E1,-3.288112491E1,1.332389126E1,4.808259944E1
2.542615583E0,3.107441012E1,-3.069920599E1,1.113126024E1,4.507732431E1
2.552685583E0,2.775936863E1,-2.878384993E1,1.108662259E1,4.149705729E1
2.562755583E0,2.286527953E1,-2.697104000E1,1.193756906E1,3.731974761E1
2.572825583E0,1.718376345E1,-2.590614508E1,1.231165403E1,3.343631116E1
2.582895583E0,1.137927925E1,-2.551921845E1,1.203297574E1,3.042221247E1
2.592965583E0,6.287724414E0,-2.545161528E1,1.247990065E1,2.903563533E1
2.603035583E0,2.583855945E0,-2.561746804E1,1.309448862E1,2.888592413E1
2.613105583E0,3.770255417E-1,-2.570691641E1,1.375704832E1,2.915894508E1
2.623175583E0,-5.402008653E-1,-2.592380367E1,1.422333453E1,2.957429051E1
2.633245583E0,-6.303894889E-1,-2.498347316E1,1.428862922E1,2.878777948E1
2.643315583E0,-5.205308318E-1,-2.390404207E1,1.325798730E1,2.733950268E1
2.653385583E0,-5.748684222E-1,-2.237166460E1,1.224868420E1,2.551180345E1
2.663455583E0,-1.972879797E-1,-2.050268866E1,1.087564687E1,2.320945625E1
2.673525583E0,1.147341825E0,-1.872128295E1,8.438223912E0,2.056712064E1
2.683595583E0,3.110462619E0,-1.747578743E1,5.217793878E0,1.850144581E1
2.693665583E0,4.549466484E0,-1.653738884E1,2.612717217E0,1.734961573E1
2.703735583E0,5.119170645E0,-1.601288775E1,1.240794803E0,1.685698828E1
2.713805583E0,5.025444456E0,-1.618230263E1,2.527201688E0,1.713209733E1
2.723875583E0,5.439670569E0,-1.671373385E1,6.749966108E0,1.882819581E1
2.733945583E0,8.383071220E0,-1.646135749E1,1.106035339E1,2.153099140E1
2.744016583E0,1.463643564E1,-1.658569152E1,1.283595164E1,2.557483267E1
2.754086583E0,2.235885920E1,-1.770241147E1,1.268987650E1,3.121421026E1
2.764155583E0,2.809383170E1,-1.804349243E1,1.316924995E1,3.589234101E1
2.774226583E0,3.192042036E1,-2.010731163E1,1.561923565E1,4.083108790E1
2.784296583E0,3.406222505E1,-2.277239534E1,2.166004209E1,4.634624675E1
2.794366583E0,3.975994845E1,-2.423277020E1,2.928152516E1,5.500443953E1
2.804436583E0,5.302903961E1,-2.629397218E1,3.330189523E1,6.791515472E1
2.814506583E0,6.952156978E1,-2.652043251E1,3.247481593E1,8.118617908E1
2.824576583E0,7.353855080E1,-2.192202307E1,2.668435803E1,8.124375984E1
2.834646583E0,7.303231758E1,-1.625943560E1,1.787423424E1,7.692578830E1
2.844716583E0,7.241094099E1,-1.297470256E1,1.132318691E1,7.443051688E1
2.854787167E0,6.285391025E1,-1.138710984E1,7.302127452E0,6.429308959E1
2.864857167E0,4.916515273E1,-9.466692427E0,6.156071430E0,5.044529436E1
2.874927167E0,3.959520198E1,-8.531018640E0,8.818573011E0,4.145269025E1
2.884997167E0,3.277074117E1,-9.345338729E0,1.286858261E1,3.642605182E1
2.895067167E0,2.801347692E1,-1.097794390E1,1.713641152E1,3.462552154E1
2.905137167E0,2.398189892E1,-1.314286030E1,2.032448891E1,3.407273253E1
2.915207167E0,2.028263454E1,-1.529074492E1,2.098030327E1,3.294488229E1
2.925277167E0,1.692950546E1,-1.714859244E1,2.011307932E1,3.138818787E1
2.935347167E0,1.346700070E1,-1.850265556E1,1.704156852E1,2.853284823E1
2.945417167E0,1.040810350E1,-1.947675023E1,1.384217793E1,2.606296814E1
2.955487167E0,7.946969504E0,-2.036760394E1,1.211307557E1,2.499440366E1
2.965557167E0,6.569753752E0,-2.184621743E1,1.079771868E1,2.523904929E1
2.975627167E0,6.038996724E0,-2.383515018E1,9.875376549E0,2.649730038E1
2.985697167E0,5.963343109E0,-2.599354692E1,9.981611102E0,2.847557730E1
2.995767167E0,6.587927483E0,-2.786794207E1,1.045178688E1,3.048381263E1
3.005837167E0,7.975957076E0,-2.965037220E1,1.035450091E1,3.240333551E1
3.015907167E0,9.593940704E0,-3.124732164E1,1.060609841E1,3.436463490E1
3.025977167E0,1.166841821E1,-3.215453118E1,1.051332532E1,3.578541419E1
3.036047167E0,1.445661739E1,-3.294090217E1,9.866480595E0,3.730206779E1
3.046117167E0,1.754522662E1,-3.361626025E1,9.421572388E0,3.907241939E1
3.056187167E0,2.079117391E1,-3.387239870E1,9.393457221E0,4.083931127E1
3.066257167E0,2.359385196E1,-3.435247616E1,9.714026141E0,4.279164372E1
3.076327167E0,2.558563346E1,-3.512260124E1,1.045899416E1,4.469465646E1
3.086397167E0,2.682058412E1,-3.585732260E1,1.162287542E1,4.626210706E1
3.096467167E0,2.734561965E1,-3.688798323E1,1.263745621E1,4.762574430E1
3.106537167E0,2.719896212E1,-3.734799070E1,1.313639795E1,4.803353934E1
3.116607167E0,2.728690659E1,-3.730466284E1,1.414853578E1,4.833626180E1
3.126677167E0,2.697042721E1,-3.636875282E1,1.547265297E1,4.784864800E1
3.136747167E0,2.521886335E1,-3.512144583E1,1.639345846E1,4.624124248E1
3.146817167E0,2.300056305E1,-3.315758828E1,1.762155735E1,4.403374666E1
3.156887167E0,2.118770868E1,-3.093751043E1,1.801734017E1,4.160135932E1
3.166957167E0,1.921658305E1,-2.907954596E1,1.809409540E1,3.927204280E1
3.177027167E0,1.746277036E1,-2.702564597E1,1.868826373E1,3.721001330E1
3.187097167E0,1.556521907E1,-2.548684359E1,1.862452557E1,3.519557065E1
3.197167167E0,1.213170480E1,-2.376463275E1,1.800690757E1,3.218982373E1
3.207237167E0,7.150040789E0,-2.194600601E1,1.714826851E1,2.875436273E1
3.217307167E0,8.555599165E-1,-1.986495624E1,1.585691678E1,2.543207185E1
3.227377167E0,-5.856909167E0,-1.857866703E1,1.422103073E1,2.411862286E1
3.237447167E0,-1.154787903E1,-1.816682892E1,1.339737556E1,2.535501637E1
3.247517167E0,-1.402620384E1,-1.955407966E1,1.307928352E1,2.738912344E1
3.257587167E0,-1.270666503E1,-2.268852522E1,1.302183346E1,2.908258344E1
3.267657167E0,-1.020223590E1,-2.590280749E1,1.310380557E1,3.076931546E1
3.277727167E0,-1.020673709E1,-2.748109730E1,1.330235129E1,3.219224659E1
3.287797167E0,-1.251903606E1,-2.796514852E1,1.516443220E1,3.418677814E1
3.297867167E0,-1.633761989E1,-2.846938901E1,1.749506921E1,3.719544838E1
3.307937167E0,-1.971988214E1,-2.958260765E1,1.883800040E1,4.023524184E1
3.318007167E0,-2.168084882E1,-3.019462870E1,1.932307371E1,4.189458181E1
3.328077167E0,-2.278904353E1,-2.948545032E1,1.919240247E1,4.191754523E1
3.338147167E0,-2.351700083E1,-2.776491880E1,1.828753416E1,4.072313777E1
3.348217167E0,-2.403862392E1,-2.603147664E1,1.662775756E1,3.914045909E1
3.358287167E0,-2.373556040E1,-2.451007089E1,1.460167628E1,3.711238813E1
3.368357167E0,-2.091052727E1,-2.349963694E1,1.267552626E1,3.391389174E1
3.378427167E0,-1.583176323E1,-2.259434996E1,1.040947526E1,2.948739650E1
3.388497167E0,-1.020828076E1,-2.209386339E1,8.322388816E0,2.572177970E1
3.398567167E0,-4.609875239E0,-2.282954837E1,8.077131448E0,2.465115171E1
3.408637167E0,9.324233204E-1,-2.459514086E1,9.697594880E0,2.645437041E1
3.418707167E0,7.253176902E0,-2.799153817E1,1.173123602E1,3.120507463E1
3.428777167E0,1.355104156E1,-3.158434580E1,1.488416697E1,3.745317147E1
3.438847167E0,1.895313441E1,-3.414964326E1,1.872001528E1,4.331118113E1
3.448917167E0,2.235098885E1,-3.593833226E1,2.152042461E1,4.747903857E1
3.458987167E0,2.461359233E1,-3.732493396E1,2.204315867E1,4.984857538E1
3.469057167E0,2.614972605E1,-3.735183115E1,2.131196669E1,5.033058104E1
3.479127167E0,2.553129178E1,-3.566297050E1,1.993105784E1,4.817614961E1
3.489197167E0,2.361611114E1,-3.422409469E1,1.787533118E1,4.526076477E1
3.499267167E0,2.065488934E1,-3.373140128E1,1.585623031E1,4.261281411E1
3.509337167E0,1.690862154E1,-3.299762717E1,1.431433592E1,3.974474927E1
3.519407167E0,1.293862290E1,-3.204670619E1,1.286508247E1,3.687695333E1
3.529477167E0,9.189257247E0,-3.099527390E1,1.258280697E1,3.469115859E1
3.539547167E0,5.523271134E0,-3.000383639E1,1.197064793E1,3.277244473E1
3.549617167E0,2.575289775E0,-2.884161808E1,1.142822746E1,3.112997645E1
3.559687167E0,5.263885725E-1,-2.769469141E1,1.078891979E1,2.972665146E1
3.569757167E0,-3.239930499E-1,-2.671416012E1,9.774921384E0,2.844820575E1
3.579827167E0,-2.351194650E-1,-2.584321735E1,8.563668323E0,2.722615616E1
3.589897167E0,7.921749294E-2,-2.467187504E1,7.046321708E0,2.565849456E1
3.599968167E0,5.956359780E-1,-2.363637057E1,4.835645006E0,2.413330186E1
3.610038167E0,1.161268138E0,-2.317251095E1,2.944087699E0,2.338763477E1
3.620108167E0,1.540533748E0,-2.262860061E1,1.682738618E0,2.274331592E1
3.630178167E0,2.032251256E0,-2.191303941E1,1.684356688E0,2.207143853E1
3.640248167E0,2.336287174E0,-2.084761591E1,2.295716268E0,2.110335613E1
3.650318167E0,3.325454214E0,-1.985516332E1,2.920852618E0,2.034250565E1
3.660388167E0,5.139711914E0,-1.896279635E1,3.013526309E0,1.987676092E1
3.670458167E0,7.564372736E0,-1.888142533E1,2.877099073E0,2.054277626E1
3.680528167E0,1.016725201E1,-1.809973329E1,3.675902406E0,2.108282754E1
3.690598167E0,1.293694475E1,-1.649173027E1,7.149130962E0,2.214614595E1
3.700668167E0,1.670740248E1,-1.487728596E1,1.107404640E1,2.496208002E1
3.710738167E0,2.156999029E1,-1.350016143E1,1.342281329E1,2.876961515E1
3.720808167E0,2.687902587E1,-1.251409400E1,1.414440999E1,3.285040204E1
3.730878167E0,3.232079325E1,-1.209370726E1,1.441122896E1,3.739752601E1
3.740948167E0,3.965127444E1,-1.373753031E1,1.543730772E1,4.471301570E1
3.751018167E0,4.857887814E1,-1.589930909E1,1.757782017E1,5.405252254E1
3.761088167E0,5.789412417E1,-1.503636765E1,2.124906936E1,6.347712119E1
3.771158167E0,6.656203666E1,-1.196618884E1,2.355642978E1,7.161424288E1
3.781228167E0,7.194765907E1,-8.838348879E0,2.388707345E1,7.632282971E1
3.791298167E0,7.228093633E1,-7.241982992E0,2.374676600E1,7.642570883E1
3.801368167E0,7.112532070E1,-7.125802326E0,2.246117846E1,7.492725032E1
3.811438167E0,6.634192875E1,-6.943507776E0,2.062715015E1,6.982079299E1
3.821508167E0,5.966795423E1,-6.750171930E0,1.822837203E1,6.275430766E1
3.831578167E0,5.223823877E1,-7.445550882E0,1.616202917E1,5.518587686E1
3.841648167E0,4.456919445E1,-9.021552086E0,1.476427916E1,4.780988846E1
3.851721167E0,3.716550144E1,-1.134826912E1,1.369535201E1,4.120218897E1
3.861791167E0,3.056572107E1,-1.392152582E1,1.230725225E1,3.577066736E1
3.871861167E0,2.529064377E1,-1.662937139E1,1.092869982E1,3.218057077E1
3.881931167E0,2.128194943E1,-1.946977100E1,9.841393701E0,3.047698122E1
3.892001167E0,1.829190788E1,-2.222783011E1,9.561592737E0,3.033305756E1
3.902071167E0,1.604613502E1,-2.522122797E1,8.253346063E0,3.101139323E1
3.912141167E0,1.445041349E1,-2.807808398E1,6.808589122E0,3.230402662E1
3.922211167E0,1.318965673E1,-3.015171247E1,5.860375396E0,3.342808414E1
3.932281167E0,1.243962736E1,-3.228466214E1,5.363561456E0,3.501159136E1
3.942351167E0,1.134590685E1,-3.449637146E1,4.801348162E0,3.663034521E1
3.952421167E0,9.358844628E0,-3.610533342E1,4.387729576E0,3.755576180E1
3.962491167E0,7.448577400E0,-3.724962183E1,4.637927256E0,3.826912595E1
3.972561167E0,6.063964335E0,-3.819598666E1,4.974423991E0,3.899294750E1
3.982631167E0,5.143215566E0,-3.851623165E1,5.106730109E0,3.919223723E1
3.992701167E0,4.925624299E0,-3.787983941E1,6.344082803E0,3.872197561E1
4.002771167E0,5.665373678E0,-3.696887595E1,7.481210711E0,3.814135238E1
4.012841167E0,7.671389061E0,-3.572763369E1,8.423214694E0,3.750019420E1
4.022911167E0,1.013421758E1,-3.412256832E1,9.736656620E0,3.690331309E1
4.032981167E0,1.290338407E1,-3.233649653E1,1.095390015E1,3.649841445E1
4.043051167E0,1.632481097E1,-2.979534105E1,1.107746001E1,3.573474390E1
4.053121167E0,2.058260840E1,-2.786237552E1,1.053077926E1,3.620570466E1
4.063191167E0,2.474990496E1,-2.674047493E1,1.056911477E1,3.793833130E1
4.073261167E0,2.837632472E1,-2.620239309E1,1.048529026E1,4.002152571E1
4.083331167E0,3.164804302E1,-2.657793169E1,1.031922232E1,4.259661289E1
4.093401167E0,3.406108134E1,-2.686367108E1,1.106187250E1,4.476805903E1
4.103471167E0,3.445414053E1,-2.640018335E1,1.183747876E1,4.499092557E1
4.113541167E0,3.357400593E1,-2.570998035E1,1.189777992E1,4.392919452E1
4.123611167E0,3.133948779E1,-2.461941148E1,1.129737262E1,4.142353854E1
4.133681167E0,2.826866813E1,-2.281876376E1,9.145013705E0,3.746257937E1
4.143751167E0,2.457296354E1,-2.141232129E1,6.859952234E0,3.330731128E1
4.153821167E0,2.042319693E1,-2.073747542E1,5.517450231E0,2.962418128E1
4.163891167E0,1.567771599E1,-2.059576931E1,5.548470880E0,2.647191005E1
4.173961167E0,1.047191651E1,-2.107570644E1,7.734514432E0,2.477234649E1
4.184031167E0,4.264791867E0,-2.262646287E1,1.113863358E1,2.557761579E1
4.194101167E0,-3.069909255E0,-2.465170916E1,1.396738787E1,2.849945669E1
4.204171167E0,-1.053783568E1,-2.730138429E1,1.542004440E1,3.307853283E1
4.214241167E0,-1.675587239E1,-2.897492056E1,1.665262810E1,3.738469344E1
4.224311167E0,-2.014133775E1,-3.011013175E1,1.827253839E1,4.057313372E1
4.234381167E0,-2.152361485E1,-3.178245414E1,2.007433567E1,4.331707908E1
4.244451167E0,-2.318887614E1,-3.189064166E1,2.241565204E1,4.535634970E1
4.254521167E0,-2.453650732E1,-3.219414958E1,2.405987972E1,4.708907804E1
4.264591167E0,-2.477880190E1,-3.256951509E1,2.388082161E1,4.738202167E1
4.274661167E0,-2.426521523E1,-3.192965896E1,2.249793172E1,4.598326568E1
4.284731167E0,-2.295844907E1,-3.077055137E1,2.102168050E1,4.377017554E1
4.294801167E0,-2.110119328E1,-2.938584183E1,1.924249791E1,4.097635640E1
4.304871167E0,-1.889037975E1,-2.812349112E1,1.717303380E1,3.798276306E1
4.314941167E0,-1.565734663E1,-2.682566418E1,1.488821675E1,3.444456068E1
4.325011167E0,-1.134325923E1,-2.519146096E1,1.197538651E1,3.011127891E1
4.335081167E0,-6.550750886E0,-2.367455757E1,8.890238825E0,2.612342549E1
4.345151167E0,-1.766210545E0,-2.310490778E1,6.476820445E0,2.406045441E1
4.355221167E0,2.932872739E0,-2.356950415E1,5.073617327E0,2.428713366E1
4.365291167E0,6.678244160E0,-2.501632048E1,5.766186692E0,2.652666855E1
4.375361167E0,1.085252581E1,-2.756122286E1,7.519947345E0,3.056056168E1
4.385431167E0,1.507692394E1,-3.017388278E1,9.354834023E0,3.500413914E1
4.395501167E0,1.872214366E1,-3.227153397E1,1.156861794E1,3.906153465E1
4.405571167E0,2.182485171E1,-3.425086558E1,1.379480964E1,4.289222212E1
4.415641167E0,2.357626353E1,-3.535450415E1,1.635506447E1,4.553316703E1
4.425711167E0,2.327808594E1,-3.495288697E1,1.786886065E1,4.563846814E1
4.435782167E0,2.122201781E1,-3.347314614E1,1.744920949E1,4.330473951E1
4.445852167E0,1.800207075E1,-3.214359221E1,1.559658003E1,4.000672919E1
4.455922167E0,1.397289010E1,-3.124315141E1,1.258567210E1,3.646608438E1
4.465992167E0,9.990829822E0,-3.038667699E1,9.686546566E0,3.342149014E1
4.476062167E0,6.447587875E0,-3.052179211E1,7.276422508E0,3.203275679E1
4.486132167E0,3.498138279E0,-3.079460916E1,5.413607190E0,3.146191455E1
4.496202167E0,1.651288784E0,-3.156437171E1,4.295158212E0,3.189803599E1
4.506272167E0,1.166025433E0,-3.213163349E1,3.552802729E0,3.234847590E1
4.516342167E0,1.842557055E0,-3.201725259E1,2.974756345E0,3.220789741E1
4.526412167E0,3.143543242E0,-3.212409760E1,2.472367085E0,3.237208843E1
4.536482167E0,3.817967527E0,-3.158363477E1,2.982596292E0,3.195307094E1
4.546552167E0,4.172528651E0,-2.944807959E1,4.143070378E0,3.002939259E1
4.556622167E0,4.427296515E0,-2.721752586E1,5.181109616E0,2.805777193E1
4.566692167E0,4.415655878E0,-2.498886196E1,5.061630535E0,2.587588341E1
4.576762167E0,4.389962627E0,-2.250688731E1,4.392425767E0,2.334791538E1
4.586832167E0,4.449596626E0,-2.075914988E1,2.994205939E0,2.144076684E1
4.596902167E0,4.711425587E0,-1.947195318E1,1.329912947E0,2.007792719E1
4.606972167E0,5.323339044E0,-1.853685242E1,-3.889310575E-1,1.929000009E1
4.617042167E0,6.033521976E0,-1.813625733E1,-1.569637095E0,1.917787731E1
4.627112167E0,7.031409554E0,-1.725223200E1,-6.909422310E-1,1.864289759E1
4.637182167E0,8.329439973E0,-1.587520687E1,1.661791406E0,1.800453593E1
4.647252167E0,1.140638226E1,-1.414260670E1,3.562437186E0,1.851512461E1
4.657322167E0,1.582244276E1,-1.238699073E1,4.562734986E0,2.060596479E1
4.667392167E0,2.101913813E1,-1.102354985E1,5.416287553E0,2.434458852E1
4.677462167E0,2.652317134E1,-1.030551995E1,7.283283631E0,2.937224166E1
4.687532167E0,3.228289628E1,-1.036511594E1,9.908736084E0,3.532427029E1
4.697602167E0,4.000027369E1,-1.270180131E1,1.233794078E1,4.374451319E1
4.707672167E0,4.899562557E1,-1.461543127E1,1.449151591E1,5.314307283E1
4.717742167E0,5.767662179E1,-1.386588605E1,1.728200018E1,6.178610707E1
4.727812167E0,6.593635184E1,-1.301360292E1,1.932876422E1,6.993252091E1
4.737882167E0,7.096120105E1,-1.231504425E1,2.240698646E1,7.542695414E1
4.747952167E0,7.133346286E1,-1.174665396E1,2.721990451E1,7.724875407E1
4.758022167E0,6.687403941E1,-1.189781150E1,3.099783966E1,7.466298366E1
4.768092167E0,6.078434206E1,-1.177466212E1,3.148302758E1,6.945905221E1
4.778162167E0,5.496632039E1,-1.238710183E1,2.761345019E1,6.274742465E1
4.788232167E0,4.873859601E1,-1.248995552E1,2.119341557E1,5.459496857E1
4.798302167E0,4.264038043E1,-1.280708862E1,1.554278447E1,4.715720212E1
4.808372167E0,3.647269293E1,-1.320640199E1,1.214592406E1,4.064713833E1
4.818442167E0,3.071477595E1,-1.374264897E1,1.024837044E1,3.517509003E1
4.828512167E0,2.562799069E1,-1.498790359E1,8.854759090E0,3.098125110E1
4.838582167E0,2.146333473E1,-1.667342899E1,7.870921202E0,2.829539490E1
4.848652167E0,1.824253516E1,-1.858959313E1,6.753391407E0,2.690671584E1
4.858718833E0,1.587471102E1,-2.081657889E1,5.435472268E0,2.673725426E1
4.868788833E0,1.423940502E1,-2.387584680E1,3.440622727E0,2.801168685E1
4.878858833E0,1.375194721E1,-2.739972276E1,1.457826052E0,3.069179233E1
4.888928833E0,1.309060139E1,-3.093700991E1,-4.352860290E-1,3.359541488E1
4.898998833E0,1.174833912E1,-3.420587477E1,-1.506333384E0,3.619854115E1
4.909068833E0,1.013926373E1,-3.662474158E1,-2.058762531E0,3.805804604E1
4.919138833E0,8.334700128E0,-3.817163886E1,-2.377985715E0,3.914327599E1
4.929208833E0,6.946905009E0,-3.897446157E1,-2.636376221E0,3.967642402E1
4.939278833E0,6.098707321E0,-3.904519416E1,-3.190191159E0,3.964717818E1
4.949348833E0,6.074733152E0,-3.824357130E1,-3.155587336E0,3.885139457E1
4.959418833E0,6.423859289E0,-3.664182247E1,-2.475707599E0,3.728294852E1
4.969488833E0,6.895344846E0,-3.456701284E1,-1.735331984E0,3.529072873E1
4.979558833E0,7.532753917E0,-3.221548958E1,-1.124342387E0,3.310353903E1
4.989628833E0,8.399626442E0,-2.956876378E1,-7.987473460E-1,3.074904085E1
4.999698833E0,9.955679870E0,-2.729552070E1,-3.747990681E-1,2.905686643E1
5.009768833E0,1.242470644E1,-2.534524741E1,6.310092938E-1,2.823389929E1
5.019838833E0,1.466380178E1,-2.344497249E1,1.622617254E0,2.770066253E1
5.029908833E0,1.656072508E1,-2.142347076E1,3.692385415E0,2.732867403E1
5.039978833E0,1.843752460E1,-1.928940778E1,5.344114201E0,2.721365691E1
5.050048833E0,2.064939530E1,-1.893574713E1,5.404476762E0,2.853363655E1
5.060118833E0,2.312847908E1,-1.746432455E1,6.252799580E0,2.964838409E1
5.070188833E0,2.573963275E1,-1.446915967E1,5.868974311E0,3.010531739E1
5.080258833E0,2.794729814E1,-1.238809819E1,4.061553175E0,3.083849322E1
5.090328833E0,2.939086342E1,-1.130652234E1,1.433334990E0,3.152324141E1
5.100398833E0,3.003261872E1,-1.026795159E1,-7.027651548E-1,3.174717147E1
5.110468833E0,2.920002199E1,-9.266021249E0,-2.627854489E0,3.074745605E1
5.120538833E0,2.731169644E1,-8.613283117E0,-3.622759402E0,2.886592791E1
5.130608833E0,2.440223186E1,-8.848950466E0,-3.572534158E0,2.620182903E1
5.140678833E0,2.009891971E1,-9.078827902E0,-1.829909527E0,2.213007588E1
5.150748833E0,1.443856236E1,-1.019263010E1,-3.577994581E-1,1.767738136E1
5.160818833E0,8.415961223E0,-1.271146442E1,1.236658044E0,1.529506633E1
5.170888833E0,2.532747188E0,-1.701081099E1,2.048009940E0,1.731983960E1
5.180958833E0,-2.407761199E0,-2.340801809E1,2.261022252E0,2.363989946E1
5.191028833E0,-7.525043194E0,-3.075112224E1,3.001656461E0,3.180043609E1
5.201098833E0,-1.230524549E1,-3.761832386E1,3.302840692E0,3.971732761E1
5.211168833E0,-1.584447624E1,-4.441193709E1,5.785208854E0,4.750722287E1
5.221238833E0,-1.925119740E1,-4.675417731E1,1.132514923E1,5.181525550E1
5.231308833E0,-2.343952523E1,-4.670733410E1,1.846126078E1,5.542386265E1
5.241378833E0,-2.672145277E1,-4.563101139E1,2.610372016E1,5.897142905E1
5.251448833E0,-2.697712110E1,-4.348470902E1,2.879160567E1,5.871662063E1
5.261518833E0,-2.389431698E1,-4.062097200E1,2.615339343E1,5.389806804E1
5.271588833E0,-1.880808487E1,-3.720045376E1,1.989730303E1,4.619004746E1
5.281658833E0,-1.287006079E1,-3.301875667E1,1.290437693E1,3.771471465E1
5.291728833E0,-6.756198070E0,-2.910568535E1,6.069060184E0,3.048968061E1
5.301798833E0,-1.339733931E0,-2.584541590E1,1.216052456E0,2.590867024E1
5.311868833E0,4.107994686E0,-2.355500306E1,-2.167303080E0,2.400856081E1
5.321938833E0,8.552635211E0,-2.265927979E1,-4.066121020E0,2.455858037E1
5.332008833E0,1.271296832E1,-2.374659994E1,-3.564369106E0,2.717030179E1
5.342078833E0,1.829054314E1,-2.727893566E1,-1.404819288E0,3.287336028E1
5.352149833E0,2.340362332E1,-3.199802227E1,2.825512598E0,3.974401257E1
5.362219833E0,2.706913289E1,-3.510473682E1,1.017902480E1,4.548288742E1
5.372288833E0,2.810456485E1,-3.508505042E1,1.722711002E1,4.814146496E1
5.382359833E0,2.700427791E1,-3.455210478E1,2.094697414E1,4.859891661E1
5.392429833E0,2.474110373E1,-3.340754740E1,2.259890611E1,4.731698421E1
5.402499833E0,2.201478330E1,-3.125763847E1,2.198248562E1,4.410125078E1
5.412569833E0,1.916302957E1,-2.908496282E1,1.844195678E1,3.941145182E1
5.422639833E0,1.604213669E1,-2.651603540E1,1.375107481E1,3.390490143E1
5.432709833E0,1.323070770E1,-2.416676449E1,9.497230096E0,2.914243489E1
5.442779833E0,1.099951311E1,-2.257915188E1,6.331472697E0,2.590163962E1
5.452849833E0,8.920120436E0,-2.164416573E1,4.528522342E0,2.384420209E1
5.462919833E0,6.790677347E0,-2.169621998E1,3.726498363E0,2.303749227E1
5.472989833E0,4.627115169E0,-2.170336761E1,4.203309856E0,2.258570730E1
5.483059833E0,2.436873901E0,-2.145918087E1,5.522674134E0,2.229203283E1
5.493129833E0,8.340053254E-1,-2.156025116E1,5.890175146E0,2.236591510E1
5.503199833E0,-1.274108291E-2,-2.162022956E1,4.918494204E0,2.217264247E1
5.513269833E0,-6.218975776E-1,-2.155462848E1,3.722590084E0,2.188256024E1
5.523339833E0,-9.677071738E-1,-2.144469849E1,3.028883436E0,2.167915324E1
5.533409833E0,-7.118546516E-1,-2.125940256E1,3.105769059E0,2.149685409E1
5.543479833E0,-1.037249279E-1,-2.058058527E1,3.491094139E0,2.087484101E1
5.553549833E0,7.311627424E-1,-1.972344894E1,3.632708439E0,2.006852281E1
5.563619833E0,1.592050642E0,-1.921694675E1,3.665460448E0,1.962807346E1
5.573689833E0,2.260683260E0,-1.892923450E1,4.255492747E0,1.953294208E1
5.583759833E0,2.649959303E0,-1.775701160E1,5.421060051E0,1.875424319E1
5.593829833E0,3.313303699E0,-1.629578773E1,6.013053798E0,1.768297190E1
5.603899833E0,5.308098861E0,-1.629048782E1,6.322396649E0,1.826276557E1
5.613969833E0,7.592114266E0,-1.614527807E1,7.351079757E0,1.929633583E1
5.624039833E0,1.093947624E1,-1.537197912E1,8.549537941E0,2.071387172E1
5.634109833E0,1.608270350E1,-1.496587713E1,8.950013741E0,2.372200616E1
5.644179833E0,2.198250433E1,-1.526359513E1,9.162729599E0,2.828716046E1
5.654249833E0,2.827900367E1,-1.800283440E1,1.098378644E1,3.527672971E1
5.664319833E0,3.453942568E1,-2.203083976E1,1.457692619E1,4.348352106E1
5.674389833E0,4.058104254E1,-2.516929768E1,1.910746348E1,5.143354664E1
5.684459833E0,4.570081779E1,-2.557814669E1,2.460124301E1,5.786214213E1
5.694529833E0,5.052335801E1,-2.382447082E1,2.875941558E1,6.282769373E1
5.704599833E0,5.482809221E1,-2.149109030E1,2.899343285E1,6.563997110E1
5.714669833E0,5.694216940E1,-1.694994382E1,2.674341491E1,6.515306203E1
5.724739833E0,5.843479516E1,-1.058611964E1,2.299029066E1,6.368080306E1
5.734809833E0,6.098749304E1,-4.697732577E0,1.873298908E1,6.397239935E1
5.744879833E0,6.263799362E1,-1.253570530E0,1.493472550E1,6.440602231E1
5.754949833E0,6.104950160E1,-6.829483563E-1,1.303489965E1,6.242929338E1
5.765019833E0,5.576659371E1,-1.575173239E0,1.301977758E1,5.728794596E1
5.775089833E0,4.811356607E1,-2.645526529E0,1.397493429E1,5.017183313E1
5.785159833E0,4.001689382E1,-4.165092747E0,1.438169234E1,4.272625496E1
5.795229833E0,3.283249479E1,-6.419202567E0,1.333674110E1,3.601454621E1
5.805299833E0,2.672042366E1,-8.641363785E0,1.110286499E1,3.019814265E1
5.815369833E0,2.168099851E1,-1.092951960E1,8.306399020E0,2.566157360E1
5.825439833E0,1.764687462E1,-1.321269009E1,5.789512990E0,2.279267040E1
5.835509833E0,1.398406413E1,-1.594713932E1,3.371167746E0,2.147626769E1
5.845579833E0,1.108285114E1,-1.910186068E1,1.840476031E0,2.216073155E1
5.855649667E0,8.914031730E0,-2.199909873E1,1.113229753E0,2.376256693E1
5.865719667E0,6.958212354E0,-2.444560884E1,2.409751591E-1,2.541776111E1
5.875789667E0,5.285733846E0,-2.694861008E1,5.584561649E-1,2.746777094E1
5.885859667E0,4.267047138E0,-2.900820759E1,1.460818657E0,2.935673330E1
5.895929667E0,3.531303686E0,-3.017077440E1,2.441817722E0,3.047471423E1
5.905999667E0,3.133847973E0,-3.089453105E1,4.202751739E0,3.133617996E1
5.916069667E0,3.379239242E0,-3.125192223E1,6.754978341E0,3.215169721E1
5.926139667E0,4.178462405E0,-3.101571577E1,8.918745756E0,3.254194522E1
5.936209667E0,5.818556694E0,-3.072399350E1,1.078641017E1,3.307818047E1
5.946279667E0,8.167224178E0,-3.043486038E1,1.234008670E1,3.384172007E1
5.956349667E0,1.107736879E1,-2.939185277E1,1.241752489E1,3.377549456E1
5.966419667E0,1.495902770E1,-2.768049437E1,1.137114694E1,3.345572090E1
5.976489667E0,1.952203458E1,-2.549686571E1,9.343655316E0,3.344404117E1
5.986559667E0,2.487523418E1,-2.318235299E1,6.608158264E0,3.463908950E1
5.996629667E0,3.030712211E1,-2.125356938E1,4.206206274E0,3.725490616E1
6.006699667E0,3.427722483E1,-2.055167897E1,2.357330426E0,4.003569229E1
6.016769667E0,3.679620300E1,-2.063945503E1,8.584908333E-1,4.219815950E1
6.026839667E0,3.704804257E1,-2.080027685E1,-7.709001276E-1,4.249474394E1
6.036909667E0,3.523420120E1,-2.019903339E1,-1.151555036E0,4.062974234E1
6.046979667E0,3.221942124E1,-1.932083774E1,-9.721930115E-1,3.758099301E1
6.057049667E0,2.852268989E1,-1.842996999E1,-8.779383802E-1,3.397025770E1
6.067119667E0,2.516414511E1,-1.745670095E1,-9.880133843E-1,3.064223845E1
6.077189667E0,2.234184848E1,-1.698321447E1,-9.517629862E-1,2.808012856E1
6.087259667E0,1.955647117E1,-1.667864003E1,-2.115756512E-2,2.570278284E1
6.097329667E0,1.667467211E1,-1.707033448E1,2.284045810E0,2.397202274E1
6.107399667E0,1.296497747E1,-1.796625188E1,5.108004218E0,2.273694250E1
6.117469667E0,8.423929809E0,-1.896083636E1,8.164145034E0,2.229639372E1
6.127539667E0,3.201248243E0,-2.116224523E1,1.168300818E1,2.438403768E1
6.137609667E0,-2.299186006E0,-2.424287184E1,1.539246074E1,2.880852199E1
6.147679667E0,-7.417940329E0,-2.750862599E1,1.945945651E1,3.450247513E1
6.157749667E0,-1.140624310E1,-3.133193553E1,2.235533918E1,4.014416216E1
6.167819667E0,-1.477957899E1,-3.523214298E1,2.358732880E1,4.490102375E1
6.177889667E0,-1.795630576E1,-3.656540170E1,2.468058739E1,4.762970619E1
6.187959667E0,-1.934523466E1,-3.675988243E1,2.542110685E1,4.870071595E1
6.198029667E0,-1.960407452E1,-3.527675489E1,2.644342936E1,4.824960238E1
6.208099667E0,-2.034033019E1,-3.389249207E1,2.695233826E1,4.784201698E1
6.218169667E0,-2.224613658E1,-3.233125509E1,2.643747689E1,4.731956078E1
6.228239667E0,-2.261879834E1,-3.123459108E1,2.432950887E1,4.559752976E1
6.238309667E0,-2.105289762E1,-2.941156022E1,2.133049535E1,4.199112293E1
6.248379667E0,-1.719929716E1,-2.759541972E1,1.797937186E1,3.715616806E1
6.258449667E0,-1.144279053E1,-2.590048264E1,1.477809146E1,3.194001320E1
6.268519667E0,-5.304650173E0,-2.394470829E1,1.234595029E1,2.745743719E1
6.278589667E0,1.067616794E0,-2.269810997E1,1.048695905E1,2.502639231E1
6.288659667E0,7.494931203E0,-2.194930618E1,9.153816104E0,2.493468237E1
6.298729667E0,1.404416766E1,-2.166580042E1,7.698128378E0,2.694265640E1
6.308799667E0,2.026156586E1,-2.145817281E1,6.390789192E0,3.019646367E1
6.318869667E0,2.555007304E1,-2.101532341E1,6.224459295E0,3.366294615E1
6.328939667E0,3.054108090E1,-2.101350376E1,6.727520401E0,3.767737376E1
6.339009667E0,3.372891505E1,-2.086190417E1,7.194317075E0,4.030653736E1
6.349079667E0,3.505183823E1,-2.017855177E1,7.889733449E0,4.120744118E1
6.359149667E0,3.497034442E1,-1.946092533E1,7.561002985E0,4.072863083E1
6.369219667E0,3.341287538E1,-1.882296370E1,6.738404993E0,3.893751797E1
6.379289667E0,3.079022608E1,-1.828015848E1,6.099503127E0,3.632363080E1
6.389359667E0,2.726280202E1,-1.800338754E1,5.455043483E0,3.312310125E1
6.399429667E0,2.322638486E1,-1.853202028E1,5.551858172E0,3.022786559E1
6.409499667E0,1.878785935E1,-1.935221623E1,6.629565505E0,2.777486401E1
6.419569667E0,1.481802560E1,-2.079436649E1,8.329706606E0,2.685821238E1
6.429639667E0,1.187008517E1,-2.208951774E1,1.022510319E1,2.708133031E1
6.439709667E0,9.796008782E0,-2.271047801E1,1.131458799E1,2.719829959E1
6.449779667E0,8.168751470E0,-2.290958739E1,1.108698044E1,2.673011093E1
6.459849667E0,7.066356608E0,-2.320571378E1,9.756271105E0,2.614619234E1
6.469919667E0,6.019562334E0,-2.397573595E1,8.696521740E0,2.620497158E1
6.479989667E0,4.863837941E0,-2.504088814E1,9.308027061E0,2.715404880E1
6.490059667E0,4.454025891E0,-2.542163310E1,1.152984388E1,2.826720849E1
6.500129667E0,4.622965400E0,-2.486400753E1,1.331649454E1,2.858180726E1
6.510199667E0,4.785932563E0,-2.425246830E1,1.327690772E1,2.806000084E1
6.520269667E0,4.766169559E0,-2.297874358E1,1.167056648E1,2.620956220E1
6.530339667E0,4.755931084E0,-2.133547952E1,9.463802733E0,2.381984737E1
6.540409667E0,5.020800013E0,-1.994483154E1,7.254134091E0,2.180887891E1
6.550479667E0,5.804713996E0,-1.909475163E1,5.131928101E0,2.060681758E1
6.560549667E0,6.107862892E0,-1.859772544E1,4.581502794E0,2.010401822E1
6.570619667E0,5.882587799E0,-1.853353938E1,4.969919297E0,2.006980366E1
6.580689667E0,5.787409161E0,-1.850251055E1,5.675468895E0,2.020019675E1
6.590759667E0,6.732737287E0,-1.878864405E1,7.040494373E0,2.116391877E1
6.600829667E0,9.777859025E0,-1.854118637E1,8.115503801E0,2.247762268E1
6.610899667E0,1.615604162E1,-1.818347360E1,7.072244754E0,2.533126603E1
6.620969667E0,2.615676376E1,-2.090588224E1,3.770620283E0,3.369643572E1
6.631039667E0,3.540281151E1,-2.507112293E1,6.674427098E-1,4.338623914E1
6.641109667E0,4.137395772E1,-2.880219381E1,7.094432598E-1,5.041700165E1
6.651180667E0,4.490386568E1,-3.202877395E1,6.078469523E0,5.549006492E1
6.661249667E0,4.847715530E1,-3.461285735E1,1.673571236E1,6.187219527E1
6.671320667E0,5.366443548E1,-3.532553704E1,2.896739403E1,7.047606061E1
6.681390667E0,5.955380722E1,-3.183121290E1,3.907744273E1,7.801877081E1
6.691460667E0,6.650448602E1,-2.436550199E1,4.309164983E1,8.290605909E1
6.701530667E0,7.290883374E1,-1.662824872E1,3.828075492E1,8.400959998E1
6.711600667E0,7.262703537E1,-1.278146378E1,3.838222048E1,8.313390964E1
6.721670667E0,6.432670692E1,-1.082065965E1,3.100924875E1,7.222593306E1
6.731740667E0,5.828552743E1,-7.180481393E0,2.405992182E1,6.346370506E1
6.741810667E0,5.132738759E1,-4.283985352E0,1.586225879E1,5.389308398E1
6.751880667E0,4.227053235E1,-4.038307570E0,1.159778268E1,4.401834159E1
6.761950667E0,3.378515123E1,-4.934184623E0,1.022014826E1,3.564034304E1
6.772020667E0,2.771336741E1,-7.625827557E0,8.671786848E0,3.002305558E1
6.782090667E0,2.339231714E1,-1.122603425E1,7.424046577E0,2.698779009E1
6.792160667E0,1.982307380E1,-1.455465064E1,6.222300503E0,2.536748181E1
6.802230667E0,1.677100966E1,-1.785234929E1,4.814594737E0,2.496304193E1
6.812300667E0,1.444555562E1,-2.149036057E1,3.545689299E0,2.613582957E1
6.822370667E0,1.219234277E1,-2.486997871E1,2.817832572E0,2.784078382E1
6.832440667E0,9.535677878E0,-2.753018584E1,1.752768381E0,2.918753984E1
6.842510667E0,7.461597980E0,-2.951765210E1,1.531560903E0,3.048463398E1
6.852580083E0,6.403193475E0,-3.104789884E1,1.652974536E0,3.174437327E1
6.862650083E0,6.000440769E0,-3.160993087E1,2.355280392E0,3.226050782E1
6.872720083E0,6.771558706E0,-3.239724209E1,4.288843803E0,3.337408401E1
6.882790083E0,8.722717851E0,-3.292797046E1,6.673703213E0,3.471131458E1
6.892860083E0,1.135219377E1,-3.354948037E1,9.101126844E0,3.656870857E1
6.902930083E0,1.419151983E1,-3.471931643E1,1.151266242E1,3.923482592E1
6.913000083E0,1.744071817E1,-3.629957558E1,1.236519699E1,4.212761486E1
6.923070083E0,2.023828458E1,-3.792629203E1,1.174886537E1,4.456486988E1
6.933140083E0,2.128257157E1,-3.925766795E1,1.080470143E1,4.594403028E1
6.943210083E0,2.104088276E1,-4.000484387E1,1.010548904E1,4.631659734E1
6.953280083E0,2.035831623E1,-3.972994522E1,1.009649018E1,4.576973564E1
6.963350083E0,1.967161922E1,-3.819550485E1,1.041216030E1,4.420726497E1
6.973420083E0,2.037927031E1,-3.619876724E1,1.112254204E1,4.300437594E1
6.983490083E0,2.207902315E1,-3.376701550E1,1.134709500E1,4.191003656E1
6.993560083E0,2.461608325E1,-3.157836059E1,1.112790861E1,4.155688585E1
7.003630083E0,2.702174471E1,-2.958280879E1,1.181207144E1,4.177130947E1
7.013700083E0,2.817363216E1,-2.818984064E1,1.260570583E1,4.180101056E1
7.023770083E0,2.798632479E1,-2.693854351E1,1.307825090E1,4.098731692E1
7.033840083E0,2.659169603E1,-2.521147949E1,1.223876732E1,3.863320361E1
7.043910083E0,2.449441205E1,-2.390362809E1,1.056746001E1,3.581942027E1
7.053980083E0,2.183053988E1,-2.230456663E1,9.053210081E0,3.249656562E1
7.064050083E0,1.838717656E1,-2.131788408E1,8.219539801E0,2.932748332E1
7.074120083E0,1.331985084E1,-2.039522853E1,8.573056612E0,2.582404060E1
7.084190083E0,7.121626829E0,-1.967331959E1,8.769644680E0,2.268620154E1
7.094260083E0,4.358385909E-1,-2.063176477E1,8.272545980E0,2.223273915E1
7.104330083E0,-6.191895567E0,-2.248370661E1,7.312388731E0,2.444028769E1
7.114400083E0,-1.109773932E1,-2.696005425E1,6.301433212E0,2.982804726E1
7.124470083E0,-1.541579932E1,-3.252826650E1,5.028355200E0,3.634582983E1
7.134540083E0,-1.996208083E1,-3.485519169E1,7.006412707E0,4.077326180E1
7.144610083E0,-2.281003504E1,-3.664523490E1,1.129527815E1,4.461786916E1
7.154680083E0,-2.560703193E1,-3.755993122E1,1.656152965E1,4.838132679E1
7.164750083E0,-2.864512123E1,-3.843030330E1,2.130540846E1,5.245332794E1
7.174820083E0,-3.199281123E1,-3.935232735E1,2.396181490E1,5.609201558E1
7.184890083E0,-3.487165044E1,-3.801266476E1,2.521382071E1,5.741717026E1
7.194960083E0,-3.492337491E1,-3.592075085E1,2.476550300E1,5.588624692E1
7.205030083E0,-3.107213672E1,-3.441295976E1,2.204952044E1,5.134112223E1
7.215100083E0,-2.470562283E1,-3.230366793E1,1.799324964E1,4.447079709E1
7.225170083E0,-1.720822937E1,-3.025290205E1,1.327220188E1,3.724932997E1
7.235240083E0,-9.748736383E0,-2.821524796E1,8.565813081E0,3.105658115E1
7.245310083E0,-2.416158970E0,-2.646638319E1,4.662220098E0,2.698228232E1
7.255380083E0,5.088740566E0,-2.544797130E1,1.922525915E0,2.602288665E1
7.265450083E0,1.218011390E1,-2.588653586E1,8.127735007E-1,2.862042128E1
7.275520083E0,1.939216675E1,-2.748211003E1,2.209807806E0,3.370765126E1
7.285590083E0,2.480027522E1,-2.937665468E1,5.424126331E0,3.882605617E1
7.295660083E0,2.766951096E1,-3.087057150E1,1.052735279E1,4.277171002E1
7.305730083E0,2.898642320E1,-3.158687413E1,1.601821105E1,4.576599647E1
7.315800083E0,2.876900735E1,-3.196858037E1,2.039692188E1,4.759916320E1
7.325870083E0,2.703308129E1,-3.102560692E1,2.258830394E1,4.694259520E1
7.335940083E0,2.453540570E1,-2.889258475E1,2.194977864E1,4.380137405E1
7.346010083E0,2.174279422E1,-2.702690663E1,1.860698977E1,3.936270889E1
7.356080083E0,1.928364009E1,-2.547307924E1,1.428470106E1,3.499698881E1
7.366150083E0,1.679701808E1,-2.382562389E1,1.071293172E1,3.105748020E1
7.376220083E0,1.421087646E1,-2.253598306E1,8.143149437E0,2.785911744E1
7.386290083E0,1.179274990E1,-2.237560095E1,7.175321226E0,2.629109550E1
7.396360083E0,9.584164744E0,-2.273298277E1,7.725880433E0,2.585215558E1
7.406430083E0,7.307235580E0,-2.345702711E1,8.676561685E0,2.605591172E1
7.416500083E0,5.751925918E0,-2.379122823E1,1.018398674E1,2.651076722E1
7.426570083E0,4.799760643E0,-2.389151032E1,1.090984723E1,2.669956431E1
7.436640083E0,4.077548819E0,-2.366893722E1,1.069466151E1,2.629107792E1
7.446710083E0,3.495112930E0,-2.299278625E1,9.977837309E0,2.530694117E1
7.456780083E0,3.021552197E0,-2.257732521E1,8.283208963E0,2.423792363E1
7.466850083E0,2.532657140E0,-2.211916078E1,6.297585744E0,2.313722568E1
7.476920083E0,2.316318932E0,-2.178489885E1,4.652364031E0,2.239624170E1
7.486990083E0,2.151893474E0,-2.216639459E1,3.806822149E0,2.259361834E1
7.497060083E0,1.459190208E0,-2.214204211E1,4.231075067E0,2.258984862E1
7.507130083E0,7.817972910E-1,-2.187867182E1,4.750518317E0,2.240211847E1
7.517200083E0,6.739360428E-1,-2.170132343E1,5.037578598E0,2.228853576E1
7.527270083E0,1.139999476E0,-2.097590850E1,5.366844667E0,2.168159030E1
7.537340083E0,2.137692341E0,-2.066483896E1,4.887926715E0,2.134237863E1
7.547410083E0,3.536703590E0,-2.096224005E1,3.071775101E0,2.147928263E1
7.557480083E0,5.054813266E0,-2.140795692E1,9.096922696E-1,2.201543315E1
7.567550083E0,6.324163093E0,-2.210211030E1,2.557721230E-1,2.299051409E1
7.577620083E0,8.946652762E0,-2.255223130E1,2.433564962E0,2.438376449E1
7.587690083E0,1.341936694E1,-2.282502730E1,5.959916056E0,2.714004200E1
7.597760083E0,2.016639657E1,-2.284523294E1,9.397111731E0,3.188877432E1
7.607830083E0,2.923504681E1,-2.488415937E1,1.167130440E1,4.012640896E1
7.617900083E0,3.926726206E1,-2.797381409E1,1.269191835E1,4.985515957E1
7.627970083E0,4.613567287E1,-2.936106367E1,1.608973770E1,5.700396504E1
7.638040083E0,4.807159710E1,-2.790996484E1,2.518717612E1,6.102653870E1
7.648110083E0,4.894538630E1,-2.417143758E1,3.583988620E1,6.530242474E1
7.658180083E0,5.229643494E1,-1.951254689E1,4.161448411E1,6.962342911E1
7.668250083E0,5.760181017E1,-1.428223120E1,4.125209239E1,7.227507032E1
7.678320083E0,6.255900943E1,-7.044764594E0,3.697311401E1,7.300869489E1
7.688390083E0,6.567926146E1,-1.166944031E0,3.133311433E1,7.277974442E1
7.698460083E0,6.591976446E1,1.496571457E0,2.666853546E1,7.112570461E1
7.708530083E0,6.436733338E1,2.240205726E0,2.359735093E1,6.859305431E1
7.718600083E0,5.991694738E1,1.559067668E0,2.227650935E1,6.394305392E1
7.728670083E0,5.246269233E1,3.232831979E-1,2.247447035E1,5.707486676E1
7.738740083E0,4.394589061E1,-1.182866583E0,2.233169070E1,4.930866947E1
7.748810083E0,3.627874546E1,-3.430012954E0,1.940577322E1,4.128554705E1
7.758880083E0,3.009449630E1,-6.344983274E0,1.451524157E1,3.400925989E1
7.768950083E0,2.518085879E1,-9.200397363E0,9.722416896E0,2.851750956E1
7.779020083E0,2.098488047E1,-1.225213406E1,5.940171763E0,2.501530807E1
7.789090083E0,1.723893543E1,-1.499557864E1,2.761436470E0,2.301464328E1
7.799160083E0,1.422275566E1,-1.774279468E1,1.757316345E-1,2.274036990E1
7.809230083E0,1.201693565E1,-2.049740044E1,-1.040719309E0,2.378304572E1
7.819300083E0,1.018177299E1,-2.319896843E1,-1.823827546E0,2.540053119E1
7.829370083E0,8.717450679E0,-2.559901891E1,-1.327495416E0,2.707519085E1
7.839440083E0,7.448952792E0,-2.723451086E1,-3.974399257E-1,2.823762451E1
7.849510083E0,6.876680533E0,-2.855432332E1,-4.414837852E-1,2.937401953E1
7.859580917E0,6.985444592E0,-2.919358538E1,-6.962367386E-1,3.002576575E1
7.869650917E0,7.228855408E0,-2.953636085E1,-9.431225556E-1,3.042272905E1
7.879720917E0,7.953545868E0,-2.993678988E1,-1.491509377E0,3.101120572E1
7.889790917E0,9.139867571E0,-3.030818396E1,-1.422657974E0,3.168828096E1
7.899860917E0,1.000971048E1,-3.048374778E1,-2.645649101E-1,3.208618359E1
7.909930917E0,1.107842714E1,-3.039585945E1,1.642869962E0,3.239349999E1
7.920000917E0,1.223587178E1,-3.031361252E1,4.294992735E0,3.297087540E1
7.930070917E0,1.314017058E1,-2.987315346E1,6.605760906E0,3.329722898E1
7.940140917E0,1.456227073E1,-2.922956213E1,9.047759306E0,3.388641290E1
7.950210917E0,1.719179869E1,-2.816991099E1,1.144809863E1,3.493080002E1
7.960280917E0,1.982980745E1,-2.729806775E1,1.257595637E1,3.600778312E1
7.970350917E0,2.245705266E1,-2.692521420E1,1.301919402E1,3.740034474E1
7.980420917E0,2.514173858E1,-2.672428983E1,1.313580154E1,3.897234876E1
7.990490917E0,2.805411040E1,-2.636479834E1,1.310629532E1,4.066830066E1
8.000560917E0,3.072170841E1,-2.578510070E1,1.217425265E1,4.191547702E1
8.010630917E0,3.249510811E1,-2.494602759E1,1.066040033E1,4.233060924E1
8.020700917E0,3.256298960E1,-2.379472019E1,9.263935547E0,4.138064164E1
8.030770917E0,3.104182476E1,-2.299444686E1,8.689933097E0,3.959614133E1
8.040840917E0,2.827756525E1,-2.235148235E1,8.838391564E0,3.711235138E1
8.050910917E0,2.516514849E1,-2.142486006E1,8.887224001E0,3.422414466E1
8.060980917E0,2.222858324E1,-2.070015615E1,8.872586081E0,3.164378550E1
8.071050917E0,1.870861672E1,-2.064523676E1,8.179878137E0,2.903702028E1
8.081120917E0,1.410769298E1,-2.133706294E1,6.869285560E0,2.648554965E1
8.091190917E0,8.346515597E0,-2.196293955E1,5.648986856E0,2.416497649E1
8.101260917E0,2.000010878E0,-2.365234984E1,4.064259267E0,2.408219051E1
8.111330917E0,-5.699978085E0,-2.696558337E1,2.689057295E0,2.769229976E1
8.121400917E0,-1.399937331E1,-3.103611086E1,3.334755964E0,3.421027956E1
8.131470917E0,-2.097424321E1,-3.578187012E1,4.575374912E0,4.172763070E1
8.141540917E0,-2.679454998E1,-4.026672897E1,6.058381999E0,4.874485986E1
8.151610917E0,-3.127704655E1,-4.372302750E1,8.290320346E0,5.439380650E1
8.161680917E0,-3.403501445E1,-4.434514785E1,1.053897238E1,5.688536091E1
8.171750917E0,-3.463958848E1,-4.398035644E1,1.070524380E1,5.699802705E1
8.181820917E0,-3.364306623E1,-4.259522122E1,8.905279033E0,5.500466135E1
8.191890917E0,-3.130861917E1,-4.116616171E1,7.166400129E0,5.221340628E1
8.201960917E0,-2.944994134E1,-3.906272178E1,6.080642349E0,4.929674928E1
8.212030917E0,-2.734169734E1,-3.655466621E1,5.303671349E0,4.595585887E1
8.222100917E0,-2.346269657E1,-3.409119216E1,4.490283306E0,4.162775705E1
8.232170917E0,-1.687166129E1,-3.215192566E1,2.700004745E0,3.641001654E1
8.242240917E0,-8.835473803E0,-3.094676306E1,7.801860908E-1,3.219280093E1
8.252310917E0,-1.085645514E0,-2.982349656E1,-5.308657855E-2,2.984329726E1
8.262380917E0,5.691260471E0,-2.969236691E1,6.997061840E-1,3.024097695E1
8.272450917E0,1.147598167E1,-3.078495189E1,2.987901763E0,3.298998295E1
8.282520917E0,1.723357705E1,-3.298843769E1,7.446496961E0,3.795633697E1
8.292590917E0,2.125028091E1,-3.550357073E1,1.194393551E1,4.306664101E1
8.302660917E0,2.423027694E1,-3.666640884E1,1.596336651E1,4.675853856E1
8.312730917E0,2.699587429E1,-3.698783496E1,1.854665586E1,4.940501602E1
8.322800917E0,2.903853827E1,-3.658778250E1,2.054253392E1,5.102840614E1
8.332870917E0,2.951436363E1,-3.519018336E1,2.080814019E1,5.042246883E1
8.342940917E0,2.851719584E1,-3.348222336E1,1.882399748E1,4.783965532E1
8.353010917E0,2.658634466E1,-3.154082380E1,1.593419826E1,4.422166847E1
8.363080917E0,2.383446254E1,-2.943788906E1,1.368979715E1,4.027507248E1
8.373150917E0,2.065739663E1,-2.778347319E1,1.279314301E1,3.690953706E1
8.383220917E0,1.717726719E1,-2.687977198E1,1.218724750E1,3.414834771E1
8.393290917E0,1.374011011E1,-2.629387629E1,1.198901286E1,3.199835911E1
8.403360917E0,1.089853638E1,-2.546805297E1,1.166145067E1,3.005643441E1
8.413430917E0,8.779883739E0,-2.481037219E1,1.078406544E1,2.844181770E1
8.423500917E0,7.044465802E0,-2.396152488E1,1.036960427E1,2.704270448E1
8.433570917E0,5.674169059E0,-2.344050054E1,9.516227700E0,2.592704861E1
8.443640917E0,4.587334807E0,-2.289176508E1,8.609238013E0,2.488363977E1
8.453710917E0,3.659865832E0,-2.227655379E1,8.229261382E0,2.402832099E1
8.463780917E0,2.903938962E0,-2.157861142E1,7.627622067E0,2.307054292E1
8.473850917E0,2.397755443E0,-2.069335934E1,6.454820296E0,2.180892150E1
8.483920917E0,2.409259840E0,-1.977031086E1,5.036213858E0,2.054344603E1
8.493990917E0,3.009550202E0,-1.888657906E1,3.377780362E0,1.942085635E1
8.504060917E0,3.869726495E0,-1.802110110E1,1.670892159E0,1.850747818E1
8.514130917E0,4.421546363E0,-1.726585952E1,9.278354488E-1,1.784715260E1
8.524200917E0,5.033135884E0,-1.660548434E1,1.174889227E0,1.739123146E1
8.534270917E0,5.897191805E0,-1.606592433E1,2.096544900E0,1.724199224E1
8.544340917E0,7.512778074E0,-1.510439650E1,3.107451303E0,1.715345101E1
8.554410917E0,9.963167814E0,-1.385791630E1,4.126023406E0,1.755934584E1
8.564480917E0,1.369739970E1,-1.241266001E1,5.372670833E0,1.924989556E1
8.574550917E0,1.828313354E1,-1.107032757E1,4.185260378E0,2.177938312E1
8.584620917E0,2.232082423E1,-1.046677096E1,2.801895694E0,2.481175343E1
8.594690917E0,2.504742299E1,-9.827345181E0,5.318130929E0,2.742685962E1
8.604760917E0,2.717207663E1,-9.659349997E0,9.414814761E0,3.033584559E1
8.614830917E0,2.955496202E1,-9.487635400E0,1.504347202E1,3.449372487E1
8.624900917E0,3.468477342E1,-9.278906758E0,2.036602520E1,4.127840356E1
8.634970917E0,4.304242095E1,-9.843556001E0,2.363130922E1,5.007978007E1
8.645040917E0,5.116375910E1,-6.935855525E0,2.775702039E1,5.861986453E1
8.655110917E0,6.815433171E1,1.491983381E1,3.302561195E1,7.719006035E1
8.665180917E0,7.215406111E1,1.981427959E1,4.290303736E1,8.625244822E1
8.675250917E0,6.552983002E1,-3.679069258E0,5.670423918E1,8.673560349E1
8.685320917E0,4.750650815E1,-1.952550783E0,4.555588636E1,6.584845900E1
8.695390917E0,4.819906640E1,-3.407996433E0,2.394235069E1,5.392588060E1
8.705460917E0,4.855012855E1,-1.214365534E0,1.758355629E1,5.165047064E1
8.715530917E0,4.127762836E1,-3.610964398E0,1.455981256E1,4.391890035E1
8.725600917E0,3.441194936E1,-6.009546053E0,1.114799731E1,3.666844347E1
8.735670917E0,2.932348946E1,-6.764001764E0,9.290926294E0,3.149508002E1
8.745740917E0,2.513894829E1,-8.911884048E0,7.237122787E0,2.763628674E1
8.755810917E0,2.144792381E1,-1.115542327E1,7.831395779E0,2.541235259E1
8.765880917E0,1.841853401E1,-1.323119652E1,9.997664047E0,2.478427410E1
8.775950917E0,1.647846995E1,-1.578281852E1,1.254008370E1,2.603634060E1
8.786020917E0,1.523188217E1,-1.857183280E1,1.279122863E1,2.721284141E1
8.796090917E0,1.470731325E1,-2.162713863E1,1.077408190E1,2.828637533E1
8.806160917E0,1.403426949E1,-2.468114872E1,7.901775205E0,2.947130594E1
8.816230917E0,1.281319545E1,-2.740148161E1,5.641946223E0,3.077093968E1
8.826300917E0,1.124633110E1,-2.967537957E1,3.610330560E0,3.193967130E1
8.836370917E0,9.316235383E0,-3.131361737E1,1.947171929E0,3.272806675E1
8.846440917E0,7.540192160E0,-3.196269807E1,1.108014329E0,3.285873189E1
8.856510958E0,6.412346706E0,-3.179745810E1,4.444655728E-1,3.244062393E1
8.866580958E0,6.063256238E0,-3.124037281E1,-1.324979067E-2,3.182332706E1
8.876650958E0,6.485592438E0,-3.070085724E1,6.941462859E-1,3.138610176E1
8.886720958E0,7.257625464E0,-2.987155600E1,1.207327899E0,3.076427515E1
8.896790958E0,8.588058228E0,-2.912580445E1,1.810294458E0,3.041947395E1
8.906860958E0,1.007707859E1,-2.830058457E1,3.121951228E0,3.020293329E1
8.916930958E0,1.146864692E1,-2.728362279E1,4.477432880E0,2.993281376E1
8.927000958E0,1.288397015E1,-2.623161046E1,6.275623602E0,2.989109442E1
8.937070958E0,1.434719727E1,-2.523441695E1,7.944813051E0,3.009548010E1
8.947140958E0,1.669463918E1,-2.445227233E1,8.511165004E0,3.080689094E1
8.957210958E0,1.982578925E1,-2.353665917E1,8.901550848E0,3.203550923E1
8.967280958E0,2.242719444E1,-2.231300767E1,1.025323532E1,3.325625049E1
8.977350958E0,2.517907188E1,-2.128988761E1,1.241607127E1,3.523356072E1
8.987420958E0,2.755019969E1,-2.038136829E1,1.324141746E1,3.673892775E1
8.997490958E0,2.880736275E1,-2.024414817E1,1.340604932E1,3.767508251E1
9.007560958E0,2.951980622E1,-1.974449658E1,1.288244519E1,3.777858518E1
9.017630958E0,2.926078392E1,-1.906800881E1,1.125055747E1,3.669274423E1
9.027700958E0,2.791536299E1,-1.857454357E1,9.992234323E0,3.498751072E1
9.037770958E0,2.599474677E1,-1.751482110E1,8.858507155E0,3.257251858E1
9.047840958E0,2.391897118E1,-1.659007693E1,7.358227394E0,3.002484547E1
9.057910958E0,2.208539662E1,-1.577325014E1,5.977820231E0,2.779018709E1
9.067980958E0,1.969937712E1,-1.568307555E1,4.899233476E0,2.565203318E1
9.078050958E0,1.546545154E1,-1.689726508E1,4.728594182E0,2.338925739E1
9.088120958E0,9.769662983E0,-1.839569712E1,6.488288004E0,2.181618364E1
9.098190958E0,3.637297919E0,-2.059880519E1,8.359435020E0,2.252600420E1
9.108260958E0,-3.445138532E0,-2.509773711E1,9.303949213E0,2.698756859E1
9.118330958E0,-1.170022940E1,-3.013523268E1,1.100103222E1,3.414747907E1
9.128400958E0,-1.974661327E1,-3.395259677E1,1.311457381E1,4.140893152E1
9.138470958E0,-2.529689094E1,-3.677386195E1,1.585710389E1,4.736768263E1
9.148540958E0,-2.794792028E1,-4.039289785E1,1.645910982E1,5.180323099E1
9.158610958E0,-3.030618422E1,-4.043013292E1,1.745027837E1,5.345626871E1
9.168680958E0,-3.197442525E1,-3.923079882E1,1.904604784E1,5.407560803E1
9.178750958E0,-3.370544199E1,-3.844236026E1,1.993807450E1,5.487621248E1
9.188820958E0,-3.511470048E1,-3.692944935E1,1.981313821E1,5.467528568E1
9.198890958E0,-3.422371813E1,-3.508310447E1,1.828541864E1,5.231102786E1
9.208960958E0,-3.003619488E1,-3.333406895E1,1.552838278E1,4.748119446E1
9.219030958E0,-2.352369473E1,-3.165408905E1,1.189619065E1,4.119302027E1
9.229100958E0,-1.604086200E1,-3.014540684E1,8.522003403E0,3.519487674E1
9.239170958E0,-7.885590112E0,-2.891383119E1,5.536770601E0,3.047700763E1
9.249240958E0,8.874845445E-2,-2.798272057E1,3.231978578E0,2.816888731E1
9.259310958E0,7.634215388E0,-2.814818040E1,2.908835713E0,2.930977021E1
9.269380958E0,1.573528768E1,-2.906119740E1,5.789634027E0,3.355104074E1
9.279450958E0,2.285607835E1,-3.049521300E1,8.675125608E0,3.908473024E1
9.289520958E0,2.770031409E1,-3.140110575E1,1.094081759E1,4.327861288E1
9.299590958E0,2.986660691E1,-3.131846822E1,1.307199087E1,4.520771622E1
9.309660958E0,2.907502723E1,-3.081177190E1,1.535124021E1,4.505977222E1
9.319730958E0,2.633875484E1,-3.017933238E1,1.834802477E1,4.405873492E1
9.329800958E0,2.295273984E1,-2.902542179E1,2.034201887E1,4.222678188E1
9.339870958E0,1.983890572E1,-2.803619920E1,1.967822891E1,3.958337200E1
9.349940958E0,1.701390300E1,-2.720686756E1,1.788527379E1,3.673648808E1
9.360010958E0,1.396227507E1,-2.679609364E1,1.529268620E1,3.386505589E1
9.370080958E0,1.061507506E1,-2.613424496E1,1.349176716E1,3.126829640E1
9.380150958E0,7.053040159E0,-2.545116154E1,1.300948648E1,2.944068167E1
9.390220958E0,3.703124118E0,-2.574665643E1,1.286527543E1,2.901928251E1
9.400290958E0,1.219166098E0,-2.593746277E1,1.330686417E1,2.917723385E1
9.410360958E0,-4.019645011E-1,-2.550723867E1,1.388527074E1,2.904447527E1
9.420430958E0,-1.474631535E0,-2.463489023E1,1.380888740E1,2.827963447E1
9.430500958E0,-2.543668032E0,-2.331928074E1,1.317214783E1,2.690287308E1
9.440570958E0,-3.099699064E0,-2.221777992E1,1.111451381E1,2.503538089E1
9.450640958E0,-3.337652090E0,-2.131551244E1,8.544395315E0,2.320555286E1
9.460710958E0,-3.362047259E0,-2.003169076E1,6.383323467E0,2.129128495E1
9.470780958E0,-3.058355742E0,-1.920378700E1,4.103437074E0,1.987403258E1
9.480850958E0,-2.668745238E0,-1.879260495E1,2.591519599E0,1.915724865E1
9.490920958E0,-2.509669397E0,-1.845884354E1,2.057082626E0,1.874190317E1
9.500990958E0,-2.390496710E0,-1.846248753E1,1.433952456E0,1.867174710E1
9.511060958E0,-1.509223663E0,-1.832114278E1,1.251847648E0,1.842577411E1
9.521130958E0,-5.929871893E-1,-1.805828120E1,1.234837806E0,1.811016229E1
9.531200958E0,6.619743937E-1,-1.809164074E1,5.396804631E-1,1.811178980E1
9.541270958E0,2.418176259E0,-1.883568022E1,-2.215208879E-1,1.899156385E1
9.551340958E0,3.973925048E0,-1.940758001E1,9.963623312E-1,1.983529632E1
9.561410958E0,5.236644716E0,-1.964319474E1,4.648524749E0,2.085392840E1
9.571480958E0,8.259118434E0,-1.966521769E1,8.457033820E0,2.294461255E1
9.581550958E0,1.379545166E1,-1.971466642E1,1.022157849E1,2.614312961E1
9.591620958E0,2.146692960E1,-2.003676380E1,9.176718478E0,3.076545355E1
9.601690958E0,2.815623786E1,-2.036309691E1,8.516261437E0,3.577647489E1
9.611760958E0,3.340089327E1,-2.209350788E1,1.078530271E1,4.147367256E1
9.621830958E0,3.763752611E1,-2.388719975E1,1.439186064E1,4.684343429E1
9.631900958E0,4.181368705E1,-2.293859894E1,1.759997059E1,5.083623423E1
9.641970958E0,4.772917947E1,-1.881545236E1,1.961165485E1,5.492461039E1
9.652040958E0,5.572870843E1,-1.425559947E1,2.020590270E1,6.096875891E1
9.662110958E0,6.297930262E1,-9.620928528E0,2.026903158E1,6.685647661E1
9.672180958E0,6.754210485E1,-4.915914413E0,2.060740294E1,7.078677276E1
9.682250958E0,6.950515079E1,-1.163759052E0,2.029354545E1,7.241649197E1
9.692320958E0,6.933021614E1,9.575423741E-1,1.912966302E1,7.192732279E1
9.702390958E0,6.631751078E1,1.298257291E0,1.871160698E1,6.891895199E1
9.712460958E0,6.119270225E1,1.148638737E-1,1.940418863E1,6.419565825E1
9.722530958E0,5.477414346E1,-1.224414559E0,1.950252710E1,5.815543436E1
9.732600958E0,4.810562789E1,-2.605581860E0,1.745574317E1,5.124103299E1
9.742670958E0,4.192136938E1,-4.226268656E0,1.316710051E1,4.414334710E1
9.752740958E0,3.590149948E1,-6.619220027E0,9.694428613E0,3.777186366E1
9.762810958E0,2.985976567E1,-9.622126622E0,7.925620151E0,3.235747798E1
9.772880958E0,2.431206312E1,-1.263726442E1,7.982402462E0,2.853936955E1
9.782950958E0,1.941536382E1,-1.557670651E1,8.443363030E0,2.628460609E1
9.793020958E0,1.525236964E1,-1.841892811E1,7.817471219E0,2.515958165E1
9.803090958E0,1.194202931E1,-2.109782996E1,6.426361313E0,2.508044284E1
9.813160958E0,8.807020082E0,-2.313459293E1,4.968802478E0,2.524800964E1
9.823230958E0,6.017175500E0,-2.476635669E1,3.688874454E0,2.575240997E1
9.833300958E0,4.141467072E0,-2.621600775E1,3.389557239E0,2.675667973E1
9.843370958E0,3.185664829E0,-2.701011343E1,4.361574980E0,2.754483662E1
9.853440958E0,2.934228709E0,-2.752558291E1,5.725800558E0,2.826751147E1
9.863510333E0,2.945496293E0,-2.786551898E1,7.128592032E0,2.891331736E1
9.873580333E0,3.547391716E0,-2.778866552E1,8.682979589E0,2.932896271E1
9.883650333E0,5.082700392E0,-2.764833468E1,9.943610047E0,2.981844454E1
9.893720333E0,7.173233185E0,-2.733500812E1,1.068986562E1,3.021475087E1
9.903790333E0,9.550845555E0,-2.675054149E1,1.167373216E1,3.070970764E1
9.913860333E0,1.216452405E1,-2.615567618E1,1.278629124E1,3.155288078E1
9.923930333E0,1.426638290E1,-2.585769505E1,1.361934288E1,3.252132493E1
9.934000333E0,1.587769194E1,-2.568773287E1,1.443906755E1,3.347308460E1
9.944070333E0,1.780892202E1,-2.620716442E1,1.520845588E1,3.514641235E1
9.954140333E0,2.053244631E1,-2.644002160E1,1.601007407E1,3.710766181E1
9.964210333E0,2.409462856E1,-2.596004939E1,1.567499820E1,3.873216826E1
9.974280333E0,2.735642062E1,-2.495070537E1,1.381345992E1,3.951864272E1
9.984350333E0,3.077685467E1,-2.353461732E1,1.160840707E1,4.044561918E1
9.994420333E0,3.331942986E1,-2.206706911E1,9.193882395E0,4.100813844E1