"Time (s)","Linear Acceleration x (m/s^2)","Linear Acceleration y (m/s^2)","Linear Acceleration z (m/s^2)","Absolute acceleration (m/s^2)"
1.008779166E-2,7.915106857E-1,3.730640531E-2,1.788149444E-1,8.123150360E-1
2.015779167E-2,8.112728128E-1,4.546093225E-2,1.123179229E-1,8.202716556E-1
3.022779169E-2,8.448674056E-1,7.278847933E-2,-1.470757462E-2,8.481246421E-1
4.029779165E-2,8.823910350E-1,9.640304446E-2,-1.693213320E-1,9.036466118E-1
5.036679166E-2,9.109985375E-1,1.077758789E-1,-2.790045726E-1,9.588417633E-1
6.043679168E-2,9.216056791E-1,1.365465188E-1,-2.852698642E-1,9.743617783E-1
7.050679164E-2,9.283887416E-1,1.199608916E-1,-2.854019382E-1,9.786472998E-1
8.057679166E-2,8.868632779E-1,8.907940686E-2,-3.368090502E-1,9.528388902E-1
9.064679168E-2,8.432594213E-1,1.001323986E-1,-3.481385422E-1,9.177763308E-1
1.007167916E-1,7.812646097E-1,6.159573913E-2,-4.704096687E-1,9.140315541E-1
1.107867917E-1,6.952848119E-1,6.707574964E-2,-4.991855711E-1,8.585489853E-1
1.208567917E-1,6.491321540E-1,4.081941247E-2,-4.740945840E-1,8.048630022E-1
1.309257917E-1,6.133553803E-1,1.495717764E-3,-4.309515611E-1,7.496174409E-1
1.409957916E-1,5.746982682E-1,-1.312056720E-2,-4.185512247E-1,7.110804289E-1
1.510657917E-1,5.610020426E-1,-4.588602483E-2,-3.816378985E-1,6.800561040E-1
1.611357917E-1,5.377339250E-1,-4.618364811E-2,-4.086572242E-1,6.769722522E-1
1.712057916E-1,5.476548958E-1,-3.923657119E-2,-4.829806707E-1,7.312562627E-1
1.812757917E-1,5.349445108E-1,-8.673174977E-3,-5.790468425E-1,7.883756080E-1
1.913457917E-1,5.165921474E-1,3.806537390E-3,-6.637906120E-1,8.411301404E-1
2.014157916E-1,4.951299423E-1,1.087874472E-2,-7.001556156E-1,8.576070737E-1
2.114847917E-1,4.672144577E-1,8.673759699E-3,-7.434418952E-1,8.781061640E-1
2.215547917E-1,4.601934135E-1,2.406012297E-2,-7.012467791E-1,8.391089992E-1
2.316247917E-1,4.361990717E-1,-5.237935781E-3,-6.701710206E-1,7.996413340E-1
2.416947916E-1,3.791261539E-1,-3.600949287E-2,-7.069073955E-1,8.029641274E-1
2.517647917E-1,3.144968793E-1,-1.068403244E-2,-6.881004111E-1,7.566403448E-1
2.618347917E-1,3.106502885E-1,-2.624815106E-3,-6.554998449E-1,7.253899214E-1
2.719047916E-1,2.900186804E-1,-1.815443516E-2,-6.625983647E-1,7.235171121E-1
2.819747917E-1,1.937398893E-1,1.847720146E-2,-6.778566740E-1,7.052419600E-1
2.920447917E-1,1.771887606E-1,8.622888923E-3,-6.151915522E-1,6.402584299E-1
3.021137917E-1,1.303838459E-1,-1.239024997E-3,-6.040858624E-1,6.179977440E-1
3.121837917E-1,9.624926269E-2,-2.818357944E-3,-5.581757178E-1,5.664203348E-1
3.222537917E-1,8.648616672E-2,-2.007641494E-2,-4.924158110E-1,5.003561235E-1
3.323237917E-1,5.495505631E-2,1.307963669E-2,-4.524260453E-1,4.559390986E-1
3.423937917E-1,1.652364671E-2,2.457058489E-2,-4.235197500E-1,4.245535575E-1
3.524637917E-1,-2.970531732E-2,4.856580377E-2,-4.121627031E-1,4.160758788E-1
3.625337917E-1,-8.157918334E-2,2.175105751E-2,-4.200839992E-1,4.284843498E-1
3.726037916E-1,-1.613711652E-1,-2.534475625E-2,-4.245552188E-1,4.548957501E-1
3.826727917E-1,-2.173927537E-1,-5.430133760E-2,-2.695801035E-1,3.505448286E-1
3.927427917E-1,-2.097530740E-1,-3.545166850E-2,-8.234633803E-2,2.281098250E-1
4.028127916E-1,-1.675002167E-1,-3.778295338E-2,2.391507547E-2,1.733661010E-1
4.128827917E-1,-1.961495268E-1,1.929230332E-2,2.607748546E-2,1.988136441E-1
4.229527917E-1,-1.551093820E-1,8.100381732E-2,3.266722441E-2,1.780103546E-1
4.330227917E-1,-1.123589265E-1,7.663711667E-2,-4.035857879E-2,1.418682167E-1
4.430927917E-1,-1.194536456E-1,1.208742267E-1,-4.125331242E-2,1.748759215E-1
4.531617917E-1,-7.047941387E-2,1.260349792E-1,4.336872540E-2,1.507746998E-1
4.632317917E-1,-1.129506648E-2,7.670143604E-2,1.070321131E-1,1.321611215E-1
4.733017916E-1,-3.399951249E-2,4.645320475E-2,8.893030286E-2,1.059361404E-1
4.833717917E-1,-4.402661026E-2,4.375062168E-2,1.226762655E-1,1.374842733E-1
4.934417917E-1,-4.529750258E-2,1.544308126E-2,1.616690078E-1,1.686037383E-1
5.035117916E-1,-3.798877537E-2,-5.549592376E-3,2.086812794E-1,2.121834617E-1
5.135817917E-1,-1.252502829E-2,-7.504725873E-2,2.421068877E-1,2.537808355E-1
5.236517917E-1,-4.502326816E-2,-8.730009913E-2,1.940141968E-1,2.174624348E-1
5.337217916E-1,3.841620684E-3,-1.738938546E-1,2.786391217E-1,3.284715982E-1
5.437907916E-1,1.282118976E-2,-2.504239672E-1,4.484802346E-1,5.138200727E-1
5.538607917E-1,-1.999104559E-2,-2.589228952E-1,7.050993633E-1,7.514025684E-1
5.639307917E-1,-5.688960761E-2,-2.515097952E-1,9.563776088E-1,9.905310369E-1
5.740007916E-1,-1.453573957E-1,-1.950139976E-1,1.174203349E0,1.199129991E0
5.840707917E-1,-2.116168740E-1,-3.521310210E-2,1.429756494E0,1.445761147E0
5.941407917E-1,-2.666906288E-1,1.475363606E-1,1.530335619E0,1.560390329E0
6.042107916E-1,-3.426670101E-1,4.448561668E-1,1.611456966E0,1.706490915E0
6.142807917E-1,-3.595569849E-1,6.138336825E-1,1.627939097E0,1.776586255E0
6.243497917E-1,-4.433376449E-1,8.680215025E-1,1.379645855E0,1.689210550E0
6.344197917E-1,-5.093778527E-1,1.217654593E0,9.878309512E-1,1.648623211E0
6.444897917E-1,-5.904959831E-1,1.381985911E0,5.726283538E-1,1.608251783E0
6.545597917E-1,-7.477676654E-1,1.667437039E0,3.053229634E-1,1.852761418E0
6.646297917E-1,-9.382217118E-1,1.941093163E0,1.380445755E-1,2.160360839E0
6.746997916E-1,-1.272382485E0,2.345045718E0,-1.385766721E-1,2.671591305E0
6.847697917E-1,-1.623694896E0,2.844159953E0,-3.074126486E-1,3.289397132E0
6.948397917E-1,-1.689320536E0,3.086866180E0,-1.507984491E-1,3.522113976E0
7.049087916E-1,-1.627097975E0,3.503776165E0,-3.289514887E-1,3.877125780E0
7.149787917E-1,-2.031478838E0,4.249318964E0,-1.195308947E0,4.859257290E0
7.250487917E-1,-2.157136380E0,4.278219997E0,-2.088011473E0,5.226489799E0
7.351187917E-1,-2.226924653E0,3.916504805E0,-2.752449299E0,5.279600405E0
7.451887917E-1,-2.467876715E0,3.581230137E0,-3.237561207E0,5.421939445E0
7.552585417E-1,-2.432586722E0,2.666131532E0,-4.136514480E0,5.489670988E0
7.653285417E-1,-1.537039745E0,5.173587173E-1,-5.352680372E0,5.592972232E0
7.753985416E-1,-3.143419573E0,3.836911921E0,-6.233341216E0,7.966022999E0
7.854675417E-1,-1.820350499E0,4.099966459E0,-8.331759564E0,9.462643306E0
7.955375417E-1,-6.154931223E-1,2.934233387E0,-1.008481095E1,1.052102510E1
8.056075416E-1,2.884484106E-1,2.134572267E0,-1.171350258E1,1.190990109E1
8.156775417E-1,2.136904721E0,5.761729360E-2,-1.271945873E1,1.289784137E1
8.257475417E-1,4.668956090E0,-3.303349400E0,-1.210063153E1,1.338419036E1
8.358175417E-1,8.165905631E0,-4.515351489E0,-1.189797990E1,1.512059323E1
8.458875417E-1,1.181430273E1,-6.343208059E0,-1.195824130E1,1.796701346E1
8.559565417E-1,1.531839172E1,-8.173697630E0,-1.155676680E1,2.085716464E1
8.660265417E-1,1.862832509E1,-9.619090748E0,-1.205839709E1,2.418566399E1
8.760965416E-1,2.199430869E1,-1.108235413E1,-1.317244838E1,2.792994064E1
8.861665417E-1,2.496936734E1,-1.155419168E1,-1.351903858E1,3.065506573E1
8.962365417E-1,2.763476680E1,-1.084931218E1,-1.485842986E1,3.319880794E1
9.063065416E-1,3.062950250E1,-9.956593205E0,-1.651261652E1,3.619346178E1
9.163765417E-1,3.296116628E1,-9.781465003E0,-1.730849508E1,3.849285053E1
9.264465417E-1,3.371838304E1,-1.046925018E1,-1.707719560E1,3.921944880E1
9.365165416E-1,3.324859201E1,-1.212018930E1,-1.541531166E1,3.860051415E1
9.465855416E-1,3.183299279E1,-1.400265711E1,-1.250560150E1,3.695678429E1
9.566555417E-1,3.022556047E1,-1.622454058E1,-9.728995013E0,3.565772801E1
9.667255417E-1,2.797525952E1,-1.825899975E1,-7.214642581E0,3.417685305E1
9.767955416E-1,2.586394222E1,-1.960482414E1,-3.755914536E0,3.267108095E1
9.868655417E-1,2.456858748E1,-2.063778039E1,4.525860398E-1,3.208953575E1
9.969355417E-1,2.307711714E1,-2.114196241E1,4.481900153E0,3.161682050E1
1.007005542E0,2.113991354E1,-2.128397256E1,7.166425856E0,3.084252085E1
1.017075542E0,1.856813619E1,-2.161226799E1,7.769663215E0,2.953359910E1
1.027144542E0,1.581672302E1,-2.209318043E1,7.533809924E0,2.819637637E1
1.037214542E0,1.345006950E1,-2.279929019E1,7.207826482E0,2.743473648E1
1.047284542E0,1.168930681E1,-2.419227004E1,6.368610703E0,2.761276925E1
1.057354542E0,1.047635337E1,-2.565132342E1,5.631652200E0,2.827472157E1
1.067424542E0,1.021629963E1,-2.689200201E1,5.472533090E0,2.928312088E1
1.077494542E0,1.009370340E1,-2.774948215E1,4.548261373E0,2.987646715E1
1.087564542E0,1.029956866E1,-2.853205479E1,3.578030833E0,3.054441961E1
1.097634542E0,1.084328019E1,-2.869608556E1,2.951573889E0,3.081807651E1
1.107703542E0,1.103991737E1,-2.867198567E1,2.238722580E0,3.080542837E1
1.117773542E0,1.099822906E1,-2.850339875E1,2.069736586E0,3.062170133E1
1.127843542E0,1.097927707E1,-2.828776046E1,2.236087824E0,3.042600870E1
1.137913542E0,1.138158071E1,-2.818131774E1,1.986032816E0,3.045769813E1
1.147983542E0,1.246547323E1,-2.766211072E1,2.348203507E0,3.043180001E1
1.158053542E0,1.470662445E1,-2.654370910E1,2.613668559E0,3.045791455E1
1.168123542E0,1.763305063E1,-2.535735349E1,2.016897929E0,3.095137683E1
1.178193542E0,2.111202466E1,-2.419048781E1,7.588539863E-1,3.211655562E1
1.188263542E0,2.474936936E1,-2.284814251E1,-7.605219045E-1,3.369194701E1
1.198332542E0,2.818346718E1,-2.155478285E1,-2.047480036E0,3.554024002E1
1.208402542E0,3.067400215E1,-2.088644610E1,-2.593561739E0,3.720033066E1
1.218472542E0,3.215056209E1,-2.069958780E1,-1.940696576E0,3.828704587E1
1.228542542E0,3.335175560E1,-2.052239377E1,-3.839187511E-1,3.916191571E1
1.238612542E0,3.390636167E1,-2.058954554E1,2.409672654E-1,3.966899056E1
1.248682542E0,3.307034549E1,-2.038462636E1,1.252272449E0,3.886835382E1
1.258752542E0,3.174945947E1,-1.978329402E1,1.775240400E0,3.745074602E1
1.268822542E0,2.932459809E1,-1.928105562E1,1.428708673E0,3.512452658E1
1.278891542E0,2.595047633E1,-1.833964805E1,1.152699628E0,3.179777711E1
1.288961542E0,2.264149022E1,-1.742658896E1,1.105564492E0,2.859275004E1
1.299031542E0,1.937866202E1,-1.723136446E1,9.580176066E-1,2.594937881E1
1.309101542E0,1.591802018E1,-1.744587892E1,1.277893632E0,2.365111139E1
1.319171542E0,1.186588921E1,-1.897914516E1,1.614208081E0,2.244132228E1
1.329241542E0,6.790294354E0,-2.244901625E1,1.670273231E0,2.351289520E1
1.339311542E0,1.018291436E0,-2.712165024E1,3.145009139E0,2.732237017E1
1.349381542E0,-5.356233725E0,-3.275913796E1,7.803544321E0,3.409905664E1
1.359450542E0,-1.257419519E1,-3.754361047E1,1.469185087E1,4.223131011E1
1.369520542E0,-1.914043827E1,-4.110832573E1,2.088300560E1,4.992344885E1
1.379590542E0,-2.391428171E1,-4.274131741E1,2.502470773E1,5.499953710E1
1.389660542E0,-2.634034528E1,-4.302919221E1,2.628950491E1,5.688992213E1
1.399730542E0,-2.585228989E1,-4.345289549E1,2.460072144E1,5.622891173E1
1.409800542E0,-2.372727372E1,-4.311613797E1,2.067473947E1,5.338004987E1
1.419870542E0,-2.072554242E1,-4.204118116E1,1.717103406E1,4.991846785E1
1.429939542E0,-1.921977680E1,-3.983254280E1,1.568458296E1,4.692587164E1
1.440009542E0,-1.859172269E1,-3.814442825E1,1.583060548E1,4.529081175E1
1.450079542E0,-1.793884364E1,-3.694782130E1,1.656570223E1,4.428731308E1
1.460149542E0,-1.511125879E1,-3.629317639E1,1.552355766E1,4.226731168E1
1.470219542E0,-1.019858724E1,-3.565000839E1,1.255404919E1,3.914764912E1
1.480289542E0,-4.434640033E0,-3.485138399E1,9.377102559E0,3.636227510E1
1.490359542E0,1.906504544E0,-3.496767341E1,6.919908414E0,3.569675161E1
1.500429542E0,8.501807120E0,-3.611223313E1,5.562804744E0,3.751424933E1
1.510498542E0,1.554905152E1,-3.797873219E1,6.958773687E0,4.162429139E1
1.520568542E0,2.191799785E1,-4.051042221E1,1.097111670E1,4.734826648E1
1.530638542E0,2.653890269E1,-4.222205192E1,1.552678298E1,5.223117856E1
1.540708542E0,2.780285788E1,-4.065888067E1,1.992123452E1,5.313190255E1
1.550778542E0,3.005481008E1,-4.709569681E1,2.039150034E1,5.947360383E1
1.560848542E0,3.171334005E1,-4.840414930E1,2.126583684E1,6.165171063E1
1.570918542E0,3.093070895E1,-4.699631753E1,2.398363203E1,6.116025852E1
1.580988542E0,2.988648511E1,-4.820874939E1,2.388494039E1,6.154490951E1
1.591058542E0,2.727894502E1,-4.615241462E1,2.265070543E1,5.820000578E1
1.601127542E0,2.362242847E1,-4.394343010E1,2.127078125E1,5.423550784E1
1.611197542E0,1.975553612E1,-4.221044636E1,1.909958494E1,5.036662719E1
1.621267542E0,1.556121373E1,-3.949212258E1,1.689207042E1,4.568502120E1
1.631337542E0,1.193833504E1,-3.744762726E1,1.472136996E1,4.197103006E1
1.641407542E0,8.892618057E0,-3.480988981E1,1.312175068E1,3.824901862E1
1.651477542E0,7.416162191E0,-3.201398751E1,1.106370852E1,3.467420517E1
1.661547542E0,6.920168615E0,-2.889705670E1,8.326149745E0,3.085860316E1
1.671616542E0,6.632128925E0,-2.567291602E1,5.772895203E0,2.713687657E1
1.681686542E0,6.770489835E0,-2.241003169E1,3.890652511E0,2.373154504E1
1.691756542E0,7.231223531E0,-1.918901577E1,2.115537241E0,2.061515020E1
1.701826542E0,8.611876277E0,-1.615888571E1,-1.866204657E-2,1.831049831E1
1.711896542E0,1.087887804E1,-1.288183474E1,-1.916482379E0,1.696951851E1
1.721966542E0,1.469634972E1,-1.010452308E1,-3.439685419E0,1.816357668E1
1.732036542E0,1.933255322E1,-7.635250930E0,-5.119598662E0,2.140689051E1
1.742106542E0,2.458659925E1,-5.994501168E0,-6.422586350E0,2.610908888E1
1.752176542E0,2.893385674E1,-5.948080122E0,-4.825710002E0,2.993050617E1
1.762246042E0,3.226379225E1,-6.890498673E0,1.086179145E-1,3.299156044E1
1.772316042E0,3.490929013E1,-8.948786995E0,5.229663141E0,3.641550086E1
1.782386042E0,3.588116520E1,-1.134071218E1,1.284155795E1,3.976148110E1
1.792456042E0,3.728822514E1,-1.205682068E1,2.262461281E1,4.525098633E1
1.802526042E0,4.203727522E1,-1.087900434E1,3.031942933E1,5.295991917E1
1.812596042E0,5.019698514E1,-9.361222106E0,3.240720340E1,6.047806734E1
1.822666042E0,5.990982781E1,-7.118829521E0,2.976963669E1,6.727626974E1
1.832736042E0,6.895256085E1,-5.030138601E0,2.256868303E1,7.272622220E1
1.842806042E0,7.224467892E1,-3.947374595E0,1.330473111E1,7.356555762E1
1.852875042E0,7.163652639E1,-2.783517310E0,7.101167421E0,7.204142184E1
1.862945042E0,6.996186512E1,-4.283460272E0,5.452180102E0,7.030460063E1
1.873015042E0,6.143490327E1,-7.883261166E0,5.573833178E0,6.218891190E1
1.883085042E0,5.178053277E1,-1.258548733E1,6.821169407E0,5.372286680E1
1.893155042E0,4.504793172E1,-1.714702071E1,7.828282721E0,4.883255555E1
1.903225042E0,4.069426334E1,-2.111895244E1,8.212495075E0,4.657765877E1
1.913295042E0,3.730450613E1,-2.488652867E1,8.466420940E0,4.563601396E1
1.923365042E0,3.357545838E1,-2.773333682E1,8.892038013E0,4.444679647E1
1.933435042E0,2.937918068E1,-2.940801915E1,9.939713463E0,4.274068029E1
1.943504042E0,2.557541253E1,-3.071272241E1,1.050315701E1,4.132419813E1
1.953574042E0,2.172065666E1,-3.196712090E1,9.204187528E0,3.972909278E1
1.963644042E0,1.859222555E1,-3.282771644E1,7.393927569E0,3.844476535E1
1.973714042E0,1.544510907E1,-3.417624810E1,4.559062350E0,3.778031733E1
1.983784042E0,1.273448959E1,-3.479409297E1,2.317410754E0,3.712366527E1
1.993854042E0,1.054396941E1,-3.524187742E1,5.745186856E-1,3.678988022E1
2.003924042E0,8.659634580E0,-3.522404575E1,-4.349650899E-1,3.627549951E1
2.013994042E0,7.505250953E0,-3.484460589E1,-3.383713531E-1,3.564533415E1
2.024063042E0,6.825896296E0,-3.439378557E1,4.302847227E-2,3.506461460E1
2.034133042E0,6.650595016E0,-3.400340908E1,2.852248406E-1,3.464886140E1
2.044203042E0,7.383877375E0,-3.353913548E1,8.919074515E-1,3.435390447E1
2.054273042E0,8.564260061E0,-3.295333335E1,1.820493025E0,3.409667028E1
2.064343042E0,9.947927631E0,-3.224289431E1,2.465766163E0,3.383261001E1
2.074413042E0,1.114131277E1,-3.054654454E1,4.134981340E0,3.277679521E1
2.084483042E0,1.244422912E1,-2.906484138E1,5.160752535E0,3.203524949E1
2.094553042E0,1.406527728E1,-2.756891078E1,5.106680993E0,3.136805791E1
2.104622042E0,1.569874492E1,-2.584377166E1,5.153546426E0,3.067425902E1
2.114692042E0,1.706082106E1,-2.459750547E1,5.065558695E0,3.036064518E1
2.124762042E0,1.931820883E1,-2.338800658E1,4.859404582E0,3.072142342E1
2.134832042E0,2.226103996E1,-2.145426687E1,4.217839894E0,3.120303896E1
2.144902042E0,2.516457313E1,-1.982172660E1,2.971583354E0,3.217121219E1
2.154972042E0,2.841846678E1,-1.900395139E1,2.596281863E0,3.428556696E1
2.165042042E0,3.155541377E1,-1.852786057E1,2.454174643E0,3.667490598E1
2.175112042E0,3.327841047E1,-1.765194883E1,2.307658621E0,3.774081596E1
2.185181042E0,3.348221400E1,-1.728762988E1,1.806842262E0,3.772513062E1
2.195251042E0,3.181283861E1,-1.678169837E1,1.757277753E0,3.601069460E1
2.205321042E0,2.901297424E1,-1.607769244E1,2.064464736E0,3.323412227E1
2.215391042E0,2.563614639E1,-1.589012662E1,2.101957083E0,3.023452248E1
2.225461042E0,2.144078319E1,-1.596564341E1,2.613162775E0,2.685958997E1
2.235531042E0,1.611000532E1,-1.674796228E1,2.037012058E0,2.332757874E1
2.245601042E0,9.582664933E0,-1.986659112E1,1.231653997E0,2.209130782E1
2.255671042E0,2.098975003E0,-2.494034644E1,2.475018212E0,2.515059227E1
2.265741042E0,-6.186462919E0,-3.032165829E1,6.154089224E0,3.155230735E1
2.275810042E0,-1.612047184E1,-3.595323097E1,1.004250868E1,4.066148558E1
2.285880042E0,-2.684789062E1,-3.950545891E1,1.404359697E1,4.978667623E1
2.295950042E0,-3.525618439E1,-4.225959104E1,1.723100778E1,5.766956911E1
2.306020042E0,-4.066980327E1,-4.283440976E1,1.846128534E1,6.188407399E1
2.316090042E0,-4.194257840E1,-4.233295255E1,1.685007571E1,6.192886084E1
2.326160042E0,-4.177190519E1,-4.019738567E1,1.485143893E1,5.984385613E1
2.336230042E0,-4.061600889E1,-3.821855224E1,1.249973791E1,5.715383942E1
2.346299042E0,-3.775133398E1,-3.657987005E1,1.022401678E1,5.355166318E1
2.356369042E0,-3.284736543E1,-3.503557128E1,8.780623412E0,4.882151184E1
2.366439042E0,-2.611146655E1,-3.379389165E1,7.898816514E0,4.343071609E1
2.376509042E0,-1.784735343E1,-3.311831838E1,7.007135423E0,3.826814581E1
2.386579042E0,-9.790423522E0,-3.282020160E1,6.104397247E0,3.478910306E1
2.396649042E0,-1.737475573E0,-3.295479515E1,5.556669846E0,3.346511504E1
2.406719042E0,6.508032297E0,-3.341105807E1,5.696410114E0,3.451235103E1
2.416789042E0,1.407091399E1,-3.452206880E1,7.072424848E0,3.794447322E1
2.426859042E0,2.060118851E1,-3.594714752E1,1.042139890E1,4.272249920E1
2.436928042E0,2.586144429E1,-3.660971424E1,1.413212148E1,4.699789713E1
2.446998042E0,2.860148229E1,-3.585347279E1,1.705314951E1,4.893185270E1
2.457068042E0,2.957095064E1,-3.520912132E1,1.799569378E1,4.937578698E1
2.467138042E0,2.920708777E1,-3.466230608E1,1.813910376E1,4.882168088E1
2.477208042E0,2.791894850E1,-3.285796994E1,1.773773450E1,4.662339648E1
2.487278042E0,2.620821224E1,-3.125948151E1,1.557706553E1,4.366543878E1
2.497348042E0,2.424238302E1,-2.942867619E1,1.309383841E1,4.031362947E1
2.507418042E0,2.197669922E1,-2.794395587E1,1.100978316E1,3.721633114E1
2.517487042E0,1.939769939E1,-2.670701014E1,1.002206448E1,3.449604193E1
2.527557042E0,1.638962853E1,-2.571327116E1,9.967776589E0,3.208034924E1
2.537627042E0,1.376399949E1,-2.574939760E1,1.048495814E1,3.102279011E1
2.547697042E0,1.134870182E1,-2.564194215E1,1.078563366E1,3.004383670E1
2.557767042E0,9.060937761E0,-2.508064453E1,1.131784723E1,2.896951828E1
2.567837042E0,7.049262273E0,-2.437742797E1,1.191992918E1,2.803633009E1
2.577907042E0,5.463445932E0,-2.374003703E1,1.223033330E1,2.725838682E1
2.587977042E0,4.263216042E0,-2.368333775E1,1.217953503E1,2.697066131E1
2.598047042E0,3.310901663E0,-2.374731798E1,1.290210821E1,2.722795580E1
2.608116042E0,2.955643551E0,-2.315810107E1,1.404548211E1,2.724534900E1
2.618186042E0,3.539500898E0,-2.290644861E1,1.354554518E1,2.684614029E1
2.628256042E0,4.408983035E0,-2.249434854E1,1.240189060E1,2.606226656E1
2.638326042E0,5.412853484E0,-2.085848705E1,1.074467976E1,2.407952674E1
2.648396042E0,6.455563477E0,-1.950871579E1,8.457728469E0,2.222155401E1
2.658466042E0,6.961696710E0,-1.822082912E1,6.718128018E0,2.063000434E1
2.668536042E0,6.653803968E0,-1.691545577E1,5.815379902E0,1.908466386E1
2.678606042E0,6.630985794E0,-1.631287447E1,4.469686489E0,1.816749689E1
2.688675042E0,7.083241028E0,-1.593233650E1,2.888347946E0,1.767354531E1
2.698745042E0,7.723652644E0,-1.533083577E1,1.753706274E0,1.725586339E1
2.708815042E0,1.011398505E1,-1.458006263E1,-1.356928436E-1,1.774512137E1
2.718885042E0,1.516471637E1,-1.488895700E1,-3.962598991E0,2.161832219E1
2.728955042E0,2.100930546E1,-1.500567678E1,-8.599661443E0,2.721241313E1
2.739025042E0,2.620152771E1,-1.655092280E1,-1.271284553E1,3.349730648E1
2.749095042E0,3.011613567E1,-2.059667212E1,-1.428438531E1,3.918224335E1
2.759164917E0,3.267786868E1,-2.452329027E1,-1.087021480E1,4.227761154E1
2.769234917E0,3.578184674E1,-2.481995929E1,-3.730196142E0,4.370681066E1
2.779303917E0,4.238900630E1,-2.498504022E1,1.770098358E0,4.923630101E1
2.789373917E0,5.017116384E1,-2.351694002E1,5.850456179E0,5.571732214E1
2.799443917E0,5.824019046E1,-1.995438823E1,9.364335748E0,6.227188915E1
2.809513917E0,6.628300285E1,-1.534786286E1,1.159671731E1,6.901794849E1
2.819583917E0,7.286065736E1,-1.086996220E1,1.194528621E1,7.462922572E1
2.829653917E0,7.299496089E1,-1.005477848E1,1.283010326E1,7.479287690E1
2.839723917E0,7.234118136E1,-6.077926902E0,1.586189159E1,7.430872978E1
2.849793917E0,6.634825310E1,-6.231497589E0,1.509836568E1,6.832922433E1
2.859863917E0,5.541628468E1,-5.284170885E0,1.499509449E1,5.765188573E1
2.869933917E0,4.485778962E1,-4.710878288E0,1.510308321E1,4.756592043E1
2.880002917E0,3.653462897E1,-4.863261405E0,1.325614074E1,3.916829959E1
2.890072917E0,3.012492989E1,-5.297437633E0,1.028389110E1,3.226968643E1
2.900142917E0,2.637419832E1,-7.288988759E0,8.694907908E0,2.871113230E1
2.910212917E0,2.434279140E1,-1.038470178E1,7.327786789E0,2.746106305E1
2.920282917E0,2.265706252E1,-1.455656384E1,6.387701862E0,2.767740537E1
2.930352917E0,2.071130328E1,-1.863088968E1,5.599140512E0,2.841511056E1
2.940422917E0,1.865451009E1,-2.307176109E1,5.012993980E0,3.009031431E1
2.950492917E0,1.670926073E1,-2.735119555E1,5.231568164E0,3.247547686E1
2.960561917E0,1.532316656E1,-3.166809430E1,5.381504806E0,3.558972076E1
2.970631917E0,1.463358103E1,-3.518592658E1,5.456363200E0,3.849627284E1
2.980701917E0,1.502314125E1,-3.787688305E1,5.117321756E0,4.106750570E1
2.990771917E0,1.622351264E1,-3.978920792E1,4.630646303E0,4.321835622E1
3.000841917E0,1.807728699E1,-4.049072411E1,4.794159011E0,4.460124443E1
3.010911917E0,2.119591116E1,-4.070225298E1,4.467907181E0,4.610750744E1
3.020981917E0,2.419133449E1,-4.101934047E1,4.606420119E0,4.784376723E1
3.031051917E0,2.700053335E1,-4.111492607E1,5.392986399E0,4.948282782E1
3.041121917E0,2.945789356E1,-4.175110781E1,6.239572594E0,5.147674001E1
3.051190917E0,3.068649414E1,-4.222874113E1,6.972778353E0,5.266447700E1
3.061260917E0,3.124141829E1,-4.178365575E1,6.882845253E0,5.262388872E1
3.071330917E0,3.208703560E1,-4.055616147E1,5.809967719E0,5.203975222E1
3.081400917E0,3.334020618E1,-3.886501104E1,4.433595720E0,5.139761865E1
3.091470917E0,3.520752854E1,-3.676516364E1,3.122847607E0,5.099999510E1
3.101540917E0,3.663479645E1,-3.506573823E1,2.533843541E0,5.077533528E1
3.111610917E0,3.742059909E1,-3.382179222E1,3.259980016E0,5.054544821E1
3.121680917E0,3.718345707E1,-3.276653586E1,4.233269819E0,4.974108890E1
3.131750917E0,3.513184685E1,-3.144624626E1,5.369892236E0,4.745470271E1
3.141819917E0,3.112292330E1,-3.000529819E1,6.606326916E0,4.373325771E1
3.151889917E0,2.642218759E1,-2.811607217E1,7.968004278E0,3.939713954E1
3.161959917E0,2.213785784E1,-2.644605592E1,9.341890626E0,3.573163226E1
3.172029917E0,1.808815580E1,-2.448966177E1,1.052209848E1,3.221241174E1
3.182099917E0,1.428315272E1,-2.397001036E1,1.085561548E1,2.994017761E1
3.192169917E0,9.770129006E0,-2.476582342E1,1.025004508E1,2.852831672E1
3.202239917E0,3.441671718E0,-2.638299253E1,8.955077430E0,2.807313326E1
3.212309917E0,-3.340117861E0,-2.914015586E1,9.359781936E0,3.078815663E1
3.222378917E0,-8.977575177E0,-3.387311908E1,1.042055690E1,3.655917202E1
3.232448917E0,-1.454943726E1,-3.899053205E1,1.370386906E1,4.381488037E1
3.242518917E0,-1.938534656E1,-4.181932845E1,2.025337040E1,5.034726314E1
3.252588917E0,-2.436444014E1,-4.243484379E1,2.618201438E1,5.549630427E1
3.262658917E0,-2.898271139E1,-4.166005965E1,2.910818796E1,5.850508299E1
3.272728917E0,-3.239182289E1,-3.993891535E1,2.795459546E1,5.853039003E1
3.282798917E0,-3.307148686E1,-3.810326385E1,2.402832815E1,5.588329369E1
3.292868917E0,-3.047853674E1,-3.621905474E1,1.943165300E1,5.116981793E1
3.302937917E0,-2.549353514E1,-3.435281296E1,1.513041894E1,4.537582693E1
3.313007917E0,-1.926538976E1,-3.254806751E1,1.153160974E1,3.954124384E1
3.323077917E0,-1.294208445E1,-3.089827795E1,8.881307788E0,3.465658319E1
3.333147917E0,-6.871116908E0,-2.951891276E1,6.938849884E0,3.109221922E1
3.343217917E0,-9.387962008E-1,-2.836660665E1,5.446583147E0,2.890001694E1
3.353287917E0,4.500346364E0,-2.782453234E1,4.895059149E0,2.860802896E1
3.363357917E0,9.835178111E0,-2.862040622E1,5.642215780E0,3.078462245E1
3.373427917E0,1.596495929E1,-3.003316134E1,6.833743259E0,3.469251724E1
3.383497917E0,2.171898202E1,-3.094345354E1,8.497903519E0,3.874823688E1
3.393566917E0,2.597756765E1,-3.162419808E1,1.190761494E1,4.262294240E1
3.403636917E0,2.800969261E1,-3.197529765E1,1.542854274E1,4.522170354E1
3.413706917E0,2.905070048E1,-3.188021257E1,1.716259769E1,4.642031787E1
3.423776917E0,2.903097665E1,-3.168129965E1,1.743461017E1,4.637313861E1
3.433846917E0,2.819015405E1,-3.054862849E1,1.733107586E1,4.503631511E1
3.443916917E0,2.715947237E1,-2.917606244E1,1.546814360E1,4.275678923E1
3.453986917E0,2.561267567E1,-2.782830028E1,1.273988774E1,3.990899887E1
3.464056917E0,2.281934848E1,-2.612648922E1,1.093476806E1,3.637148961E1
3.474126917E0,1.904894572E1,-2.478143549E1,1.030179528E1,3.291061932E1
3.484195917E0,1.472138516E1,-2.366457052E1,1.040465949E1,2.974874818E1
3.494265917E0,1.032486371E1,-2.332263003E1,1.072105467E1,2.766746998E1
3.504335917E0,6.437214330E0,-2.306580628E1,1.111545872E1,2.640118502E1
3.514405917E0,3.148248496E0,-2.310256422E1,1.161290241E1,2.604802189E1
3.524475917E0,6.384013438E-1,-2.282009459E1,1.277859630E1,2.616212523E1
3.534545917E0,-7.123171663E-1,-2.247493345E1,1.370450290E1,2.633331405E1
3.544615917E0,-1.004244670E0,-2.208012477E1,1.374339273E1,2.602731759E1
3.554685917E0,-8.735629088E-1,-2.112920378E1,1.282806375E1,2.473389545E1
3.564754917E0,-6.339925432E-1,-1.998641928E1,1.122243002E1,2.293036933E1
3.574824917E0,-1.667275071E-2,-1.895583349E1,9.678282112E0,2.128363328E1
3.584894917E0,5.660975987E-1,-1.781095685E1,8.207117976E0,1.961905797E1
3.594964917E0,1.015868350E0,-1.657023967E1,7.342699528E0,1.815268761E1
3.605034917E0,1.255680791E0,-1.557307890E1,6.308075649E0,1.684901596E1
3.615104917E0,1.602941081E0,-1.494338055E1,5.550637273E0,1.602134877E1
3.625174917E0,2.049185377E0,-1.555238443E1,5.455189079E0,1.660827836E1
3.635244917E0,2.881497933E0,-1.646443079E1,5.133368855E0,1.748519338E1
3.645314917E0,5.124354787E0,-1.744413879E1,4.610819564E0,1.875677603E1
3.655383917E0,8.799406423E0,-1.807560650E1,4.500908282E0,2.060134169E1
3.665453917E0,1.393976212E1,-1.813203564E1,4.525757779E0,2.331459131E1
3.675523917E0,1.985307937E1,-1.708771825E1,4.828372239E0,2.663546609E1
3.685593917E0,2.585519244E1,-1.576620307E1,5.077414509E0,3.070576939E1
3.695663917E0,3.111705035E1,-1.591624263E1,4.656564086E0,3.526019273E1
3.705733917E0,3.453357378E1,-1.722478517E1,4.978310636E0,3.891072499E1
3.715803917E0,3.707118819E1,-1.931655524E1,6.976470870E0,4.238010672E1
3.725873917E0,4.096839952E1,-2.151245836E1,1.078598683E1,4.751350478E1
3.735943917E0,4.729624227E1,-2.188879452E1,1.605704943E1,5.453331729E1
3.746012917E0,5.539100132E1,-2.050462759E1,2.106370327E1,6.270791318E1
3.756082833E0,6.339782760E1,-1.802838439E1,2.290853489E1,6.977899512E1
3.766152833E0,6.886077360E1,-1.483832246E1,2.041701759E1,7.334055195E1
3.776222833E0,7.008263117E1,-1.170175202E1,1.531605752E1,7.268485268E1
3.786292833E0,6.717114813E1,-9.472401649E0,9.942587954E0,6.856051771E1
3.796362833E0,6.138464996E1,-8.065874974E0,6.124097686E0,6.221445300E1
3.806432833E0,5.393461895E1,-7.444624098E0,4.202589186E0,5.460794177E1
3.816502833E0,4.538377707E1,-7.254100762E0,4.908277949E0,4.622121149E1
3.826572833E0,3.762444706E1,-8.116335275E0,7.545256433E0,3.922250387E1
3.836641833E0,3.137404484E1,-9.441585653E0,1.012564440E1,3.429289873E1
3.846711833E0,2.692253150E1,-1.113260627E1,1.201321916E1,3.151309345E1
3.856781833E0,2.400237119E1,-1.327117043E1,1.277638606E1,3.025679804E1
3.866851833E0,2.126354707E1,-1.595231176E1,1.206834087E1,2.919348448E1
3.876921833E0,1.788826522E1,-1.861902919E1,1.020494901E1,2.776327187E1
3.886991833E0,1.437684499E1,-2.093944760E1,8.556420114E0,2.680235928E1
3.897061833E0,1.140783237E1,-2.340197675E1,7.324921653E0,2.704525156E1
3.907131833E0,8.967080594E0,-2.573731258E1,6.150559845E0,2.794006406E1
3.917201833E0,7.077611328E0,-2.745471232E1,6.020796681E0,2.898454421E1
3.927270833E0,6.226430392E0,-2.881213642E1,6.490463169E0,3.018333567E1
3.937340833E0,6.069650753E0,-2.966009027E1,6.860407147E0,3.104233886E1
3.947410833E0,6.413491006E0,-3.016115222E1,7.519780115E0,3.173917237E1
3.957480833E0,7.346542318E0,-3.059672301E1,7.773452795E0,3.241230802E1
3.967550833E0,8.824695046E0,-3.060975996E1,7.483840789E0,3.272369967E1
3.977620833E0,1.047171536E1,-3.053579268E1,7.857236964E0,3.322390149E1
3.987690833E0,1.248241612E1,-3.076916675E1,8.587020932E0,3.429707368E1
3.997760833E0,1.553718869E1,-3.156755259E1,8.379795025E0,3.616815690E1
4.007830833E0,1.897781434E1,-3.191029532E1,8.586552570E0,3.810712886E1
4.017899833E0,2.115633252E1,-3.142686157E1,8.161124947E0,3.875360621E1
4.027969833E0,2.289803797E1,-3.102629923E1,7.971476939E0,3.937633593E1
4.038039833E0,2.451310442E1,-3.013146941E1,8.011743205E0,3.966088459E1
4.048109833E0,2.642995503E1,-2.969834042E1,8.784403637E0,4.071485839E1
4.058179833E0,2.857661525E1,-2.935037496E1,9.470246365E0,4.204465501E1
4.068249833E0,3.037490303E1,-2.872416155E1,1.000606767E1,4.298643485E1
4.078319833E0,3.175574874E1,-2.817797781E1,9.722920926E0,4.355411809E1
4.088389833E0,3.249638982E1,-2.732059590E1,8.699541242E0,4.333719337E1
4.098459833E0,3.163833431E1,-2.615343553E1,7.647935879E0,4.175496750E1
4.108528833E0,2.989979337E1,-2.514494753E1,6.352799832E0,3.958060252E1
4.118598833E0,2.765518294E1,-2.347278185E1,4.975709209E0,3.661336250E1
4.128668833E0,2.514823367E1,-2.210556484E1,4.211941223E0,3.374655689E1
4.138738833E0,2.243230958E1,-2.108103442E1,4.275655993E0,3.107892790E1
4.148808833E0,1.933936405E1,-2.033271478E1,4.844901148E0,2.847636493E1
4.158878833E0,1.521643149E1,-1.942409956E1,5.539289582E0,2.528871606E1
4.168948833E0,9.281097710E0,-1.944838422E1,5.841248569E0,2.232708240E1
4.179018833E0,2.805923256E0,-2.050000829E1,6.316447107E0,2.163379415E1
4.189088833E0,-2.343661097E0,-2.391569908E1,6.293785638E0,2.484079603E1
4.199157833E0,-6.243422400E0,-2.995267325E1,7.584246837E0,3.152243262E1
4.209227833E0,-1.099582586E1,-3.642972759E1,9.760477592E0,3.928485918E1
4.219297833E0,-1.829477301E1,-3.865704897E1,1.547332540E1,4.548065472E1
4.229367833E0,-2.538163580E1,-4.038945969E1,2.247686771E1,5.273277417E1
4.239437833E0,-3.119953118E1,-4.064755579E1,2.696378243E1,5.790233242E1
4.249507833E0,-3.491493620E1,-3.873138579E1,2.927539260E1,5.980151861E1
4.259577833E0,-3.578335532E1,-3.692655147E1,2.942421126E1,5.924358977E1
4.269647833E0,-3.476654557E1,-3.514357403E1,2.828371184E1,5.695394492E1
4.279716833E0,-3.219812568E1,-3.364772061E1,2.480459046E1,5.276510313E1
4.289786833E0,-2.847721492E1,-3.186181021E1,1.993721847E1,4.715526906E1
4.299856833E0,-2.317464636E1,-3.043312025E1,1.590596673E1,4.142751283E1
4.309926833E0,-1.671665862E1,-2.956460057E1,1.281165412E1,3.629945955E1
4.319996833E0,-1.038298270E1,-2.937936779E1,1.005431070E1,3.274206385E1
4.330066833E0,-3.508643972E0,-2.964470040E1,7.252112124E0,3.071989542E1
4.340136833E0,3.801667244E0,-3.041394840E1,4.540782492E0,3.098515188E1
4.350206833E0,1.094350147E1,-3.171137773E1,2.820676950E0,3.366493606E1
4.360275833E0,1.814135844E1,-3.416073894E1,2.851865121E0,3.878399291E1
4.370345833E0,2.452716815E1,-3.571851437E1,4.593350715E0,4.357170088E1
4.380415833E0,2.859638585E1,-3.596991892E1,7.810206639E0,4.661102529E1
4.390485833E0,2.991298703E1,-3.527845058E1,1.213845951E1,4.781943191E1
4.400555833E0,2.883752269E1,-3.380550656E1,1.496333125E1,4.688620554E1
4.410625833E0,2.662171096E1,-3.324901535E1,1.633942667E1,4.562005458E1
4.420695833E0,2.358937533E1,-3.248713484E1,1.753500803E1,4.381037623E1
4.430765833E0,2.097282585E1,-3.162767834E1,1.754510149E1,4.180909049E1
4.440835833E0,1.928985802E1,-3.068521477E1,1.649816805E1,3.982299056E1
4.450904833E0,1.779387830E1,-2.901934771E1,1.435969043E1,3.694516688E1
4.460974833E0,1.601161656E1,-2.739252367E1,1.191111041E1,3.389095409E1
4.471044833E0,1.375093096E1,-2.595513305E1,1.040849761E1,3.116237887E1
4.481114833E0,1.062821492E1,-2.461067808E1,9.558340516E0,2.846060965E1
4.491184833E0,7.208905878E0,-2.393561236E1,9.127924633E0,2.661204372E1
4.501254833E0,3.985901315E0,-2.363560809E1,8.489366584E0,2.542830557E1
4.511324833E0,1.047345666E0,-2.345115651E1,7.570290703E0,2.466501522E1
4.521394833E0,-1.293766045E0,-2.374442010E1,6.928007977E0,2.476829851E1
4.531464833E0,-2.786846130E0,-2.422805734E1,7.445493579E0,2.549903230E1
4.541533833E0,-4.244444726E0,-2.480283396E1,7.763006160E0,2.633363150E1
4.551603833E0,-5.431901958E0,-2.510580861E1,8.855663069E0,2.717038743E1
4.561673833E0,-5.034539800E0,-2.572301964E1,1.058657807E1,2.826828551E1
4.571743833E0,-2.446354576E0,-2.617189869E1,1.063560931E1,2.835611252E1
4.581813833E0,1.043976501E0,-2.661103161E1,9.214050611E0,2.818041197E1
4.591883833E0,4.030944756E0,-2.547026088E1,8.796510882E0,2.724630817E1
4.601953833E0,6.604877976E0,-2.458778974E1,8.620262353E0,2.687922507E1
4.612023833E0,8.498606354E0,-2.434613133E1,8.141940233E0,2.704166437E1
4.622093833E0,1.002579032E1,-2.378821341E1,7.860478075E0,2.698486028E1
4.632162833E0,1.193538805E1,-2.291981534E1,8.308127457E0,2.714399390E1
4.642232833E0,1.608154108E1,-2.188275084E1,8.390869651E0,2.842318492E1
4.652302833E0,2.366694215E1,-2.114093797E1,7.811041036E0,3.268142854E1
4.662372833E0,3.395130805E1,-2.187833502E1,5.610944871E0,4.077788081E1
4.672442833E0,4.419528138E1,-2.526268239E1,4.117595814E0,5.107230769E1
4.682512833E0,5.030456456E1,-2.773852213E1,6.830275276E0,5.785004309E1
4.692582833E0,5.314069336E1,-2.816853573E1,1.543626691E1,6.209410626E1
4.702652833E0,5.750443298E1,-2.732995379E1,2.506861330E1,6.842602984E1
4.712722833E0,6.386096918E1,-2.400425633E1,3.222588593E1,7.545154359E1
4.722791833E0,6.979659473E1,-1.806334606E1,3.424946225E1,7.981775975E1
4.732861833E0,7.254965097E1,-1.161751937E1,3.028388761E1,7.947032441E1
4.742931833E0,7.238915660E1,-6.464944165E0,2.286219220E1,7.618835428E1
4.753001833E0,7.206248435E1,-4.484006905E0,1.575327254E1,7.390043007E1
4.763071792E0,6.802278807E1,-4.698481021E0,1.141359305E1,6.913353403E1
4.773141792E0,5.835306044E1,-5.811688555E0,9.334616105E0,5.938005089E1
4.783211792E0,4.830262761E1,-7.603091244E0,9.825951204E0,4.987484483E1
4.793281792E0,3.935671978E1,-1.028668139E1,1.040531204E1,4.198854278E1
4.803351792E0,3.177832367E1,-1.322070077E1,1.009485179E1,3.586857701E1
4.813421792E0,2.573147238E1,-1.622643274E1,9.102588648E0,3.175315591E1
4.823490792E0,2.089105371E1,-1.927805249E1,7.886593494E0,2.950047101E1
4.833560792E0,1.686333603E1,-2.204074026E1,6.357689273E0,2.847080164E1
4.843630792E0,1.335373545E1,-2.440817497E1,4.984346716E0,2.826526080E1
4.853700792E0,1.089332651E1,-2.695153368E1,3.966026044E0,2.933903701E1
4.863770792E0,8.968973923E0,-2.914882845E1,3.586894920E0,3.070769461E1
4.873840792E0,6.909296302E0,-3.070721433E1,3.559710045E0,3.167558876E1
4.883910792E0,4.595815609E0,-3.151607838E1,3.418611469E0,3.203235274E1
4.893980792E0,2.716669017E0,-3.160615825E1,3.272666135E0,3.189106260E1
4.904050792E0,1.495913646E0,-3.105198020E1,3.068651519E0,3.123907576E1
4.914119792E0,6.521317756E-1,-3.011180406E1,2.832018210E0,3.025171642E1
4.924189792E0,2.868801874E-1,-2.872352069E1,2.748705912E0,2.885616616E1
4.934259792E0,9.104524076E-2,-2.730931312E1,2.677974775E0,2.744045227E1
4.944329792E0,3.757242438E-1,-2.610247587E1,3.119126731E0,2.629086090E1
4.954399792E0,1.842882160E0,-2.503676235E1,3.644626819E0,2.536767605E1
4.964469792E0,5.025126368E0,-2.391273571E1,3.765862111E0,2.472352203E1
4.974539792E0,9.744935108E0,-2.294850412E1,4.154613074E0,2.527564859E1
4.984609792E0,1.609899852E1,-2.232996928E1,4.603776300E0,2.791057215E1
4.994678792E0,2.344089347E1,-2.220345892E1,4.223207054E0,3.256231799E1
5.004748792E0,3.115073266E1,-2.280008074E1,5.022103357E0,3.892856726E1
5.014818792E0,3.706074039E1,-2.350908370E1,6.825247840E0,4.441575737E1
5.024888792E0,4.026683188E1,-2.503570985E1,8.763629065E0,4.821831303E1
5.034958792E0,3.993447146E1,-2.576243689E1,1.086908395E1,4.875040668E1
5.045028792E0,3.727768846E1,-2.554134665E1,1.250496649E1,4.688667863E1
5.055098792E0,3.435386312E1,-2.552676370E1,1.281216634E1,4.467611422E1
5.065168792E0,3.226763738E1,-2.500024765E1,1.130335198E1,4.235538420E1
5.075238792E0,3.032632203E1,-2.345677451E1,9.902011786E0,3.959742309E1
5.085308792E0,2.804524836E1,-2.189508612E1,8.601278783E0,3.660481865E1
5.095377792E0,2.591618592E1,-2.080669242E1,7.264968982E0,3.401980183E1
5.105447792E0,2.303666142E1,-1.967435572E1,6.873759849E0,3.106471659E1
5.115517792E0,1.841175007E1,-1.838326243E1,6.685667785E0,2.686326548E1
5.125587792E0,1.275623889E1,-1.771097531E1,6.386514877E0,2.274176443E1
5.135657792E0,6.335081599E0,-1.773357129E1,5.381643970E0,1.958506832E1
5.145727792E0,-9.912784696E-1,-1.891630163E1,4.300478008E0,1.942429436E1
5.155797792E0,-8.779778489E0,-2.089326863E1,4.526182287E0,2.311059304E1
5.165867792E0,-1.554848083E1,-2.445074036E1,6.846380847E0,2.977359385E1
5.175936792E0,-2.193140903E1,-3.172713714E1,1.040489455E1,3.994821352E1
5.186006792E0,-2.892848197E1,-4.002007470E1,1.410439047E1,5.135559638E1
5.196076792E0,-3.675270205E1,-4.179333406E1,1.835720139E1,5.860401627E1
5.206146792E0,-4.095383762E1,-4.041911676E1,2.216626595E1,6.166251018E1
5.216216792E0,-4.168898232E1,-3.939282283E1,2.363559640E1,6.203553138E1
5.226286792E0,-4.089223135E1,-3.851898685E1,2.327432267E1,6.080773824E1
5.236356792E0,-3.936873230E1,-3.704104229E1,2.098051143E1,5.798377149E1
5.246426792E0,-3.560650745E1,-3.585175838E1,1.785473729E1,5.359070438E1
5.256495792E0,-2.945196682E1,-3.467733810E1,1.500318821E1,4.790649000E1
5.266565792E0,-2.194377472E1,-3.365886073E1,1.229253949E1,4.201850403E1
5.276635792E0,-1.411320924E1,-3.282715043E1,9.646593711E0,3.701163670E1
5.286705792E0,-6.060440218E0,-3.250568689E1,7.472853870E0,3.389973688E1
5.296775792E0,2.250931274E0,-3.304012474E1,5.418100190E0,3.355700142E1
5.306845792E0,1.037165781E1,-3.393027210E1,4.743320394E0,3.579572236E1
5.316915792E0,1.794690227E1,-3.465507892E1,6.432380437E0,3.955301903E1
5.326985792E0,2.356930067E1,-3.486732817E1,8.459270965E0,4.292786709E1
5.337055792E0,2.590693563E1,-3.383730839E1,1.160997763E1,4.416926911E1
5.347124792E0,2.540112107E1,-3.321386890E1,1.541352475E1,4.456405260E1
5.357194792E0,2.379057100E1,-3.326904089E1,1.797870177E1,4.467722091E1
5.367264792E0,2.123506645E1,-3.215424584E1,1.861324746E1,4.279341718E1
5.377334792E0,1.850789584E1,-3.104886246E1,1.718101993E1,4.002201287E1
5.387404792E0,1.641245372E1,-3.030345006E1,1.454302286E1,3.740544394E1
5.397474792E0,1.423318241E1,-2.913877124E1,1.172889362E1,3.448504627E1
5.407544792E0,1.169272977E1,-2.815429659E1,9.458174788E0,3.191929536E1
5.417614792E0,8.710288424E0,-2.748166097E1,7.662924632E0,2.983003902E1
5.427684792E0,5.733748679E0,-2.712669755E1,6.413986266E0,2.845826442E1
5.437753792E0,2.866196939E0,-2.737429439E1,5.549601731E0,2.807784105E1
5.447823792E0,3.931790596E-1,-2.823947883E1,5.507107676E0,2.877413750E1
5.457893792E0,-9.503608239E-1,-2.938823685E1,6.168905484E0,3.004375219E1
5.467963792E0,-1.668067954E0,-2.943341945E1,7.150447755E0,3.033541716E1
5.478033792E0,-2.092191063E0,-2.853293655E1,8.045341891E0,2.971924053E1
5.488103792E0,-1.839414761E0,-2.746866144E1,8.275357322E0,2.874704066E1
5.498173792E0,-1.189783840E0,-2.629806056E1,7.333947415E0,2.732746529E1
5.508243792E0,-4.775719231E-1,-2.503670621E1,6.037438442E0,2.575879259E1
5.518313792E0,-1.133336574E-1,-2.350180509E1,4.570774323E0,2.394242396E1
5.528382792E0,-1.892042041E-1,-2.176837462E1,3.638179094E0,2.207111866E1
5.538452792E0,-5.143292749E-1,-2.105416062E1,2.478544083E0,2.120578682E1
5.548522792E0,-7.084422165E-1,-2.138567903E1,1.977767777E0,2.148861846E1
5.558592792E0,-6.780483896E-1,-2.128656873E1,3.095747809E0,2.152118520E1
5.568662792E0,1.366237020E-1,-2.094562460E1,4.612913744E0,2.144800292E1
5.578732792E0,2.259660582E0,-2.174952787E1,5.964537696E0,2.266547459E1
5.588802792E0,5.786893437E0,-2.298942060E1,7.827331964E0,2.496535040E1
5.598872792E0,1.025110576E1,-2.344884335E1,1.037801139E1,2.761587486E1
5.608942792E0,1.594577808E1,-2.319785746E1,1.228206011E1,3.071249632E1
5.619011792E0,2.141243589E1,-2.302883551E1,1.391335726E1,3.438606092E1
5.629081792E0,2.597507440E1,-2.367353547E1,1.598273716E1,3.860814239E1
5.639151792E0,2.902002364E1,-2.537122308E1,1.902395121E1,4.298571219E1
5.649221792E0,3.140571102E1,-2.727963733E1,2.188078149E1,4.700282860E1
5.659291792E0,3.449310403E1,-2.681334761E1,2.326088577E1,4.949544062E1
5.669361792E0,3.823267911E1,-2.493062837E1,2.455552247E1,5.182902340E1
5.679431792E0,4.384572079E1,-2.273518600E1,2.671386776E1,5.615128355E1
5.689501792E0,5.169750230E1,-1.962666583E1,2.846559299E1,6.219427418E1
5.699571792E0,6.094234786E1,-1.578584972E1,2.887454258E1,6.925967097E1
5.709640792E0,6.933084296E1,-1.170670344E1,2.756741389E1,7.552334076E1
5.719710792E0,7.289182068E1,-8.806616625E0,2.533620060E1,7.767043890E1
5.729780792E0,6.947334194E1,-7.496877741E0,2.371746210E1,7.379204852E1
5.739850792E0,6.015889113E1,-7.414447787E0,2.374466568E1,6.509896594E1
5.749920792E0,4.977759009E1,-8.439223201E0,2.353796661E1,5.570515987E1
5.759991167E0,4.071405032E1,-9.594354102E0,2.244243930E1,4.746944919E1
5.770061167E0,3.377216573E1,-1.112908975E1,2.020615530E1,4.089871060E1
5.780131167E0,2.848083786E1,-1.354959145E1,1.781465580E1,3.622307986E1
5.790201167E0,2.394419841E1,-1.633367418E1,1.518786316E1,3.272284733E1
5.800271167E0,1.978365655E1,-1.943983910E1,1.295441857E1,3.061237284E1
5.810340167E0,1.609021600E1,-2.298135612E1,1.067627552E1,3.001700583E1
5.820410167E0,1.307267149E1,-2.676295162E1,8.208432430E0,3.089544760E1
5.830480167E0,1.047834610E1,-3.031973338E1,5.987327803E0,3.263326621E1
5.840550167E0,8.428101797E0,-3.334233691E1,4.758567301E0,3.471870236E1
5.850620167E0,6.433212495E0,-3.523292884E1,4.616074457E0,3.611168289E1
5.860690167E0,4.954758051E0,-3.637716112E1,5.337336109E0,3.709898429E1
5.870760167E0,4.482807056E0,-3.656925385E1,5.913122544E0,3.731448652E1
5.880830167E0,5.336153802E0,-3.616376347E1,6.596836300E0,3.714580158E1
5.890900167E0,6.938063434E0,-3.577808347E1,7.156715970E0,3.714063225E1
5.900969167E0,8.842297504E0,-3.565146318E1,8.225271242E0,3.764130895E1
5.911039167E0,1.045124777E1,-3.557046053E1,9.695555956E0,3.832088266E1
5.921109167E0,1.161124063E1,-3.589607560E1,1.128804397E1,3.937980560E1
5.931179167E0,1.265964990E1,-3.637546309E1,1.257421039E1,4.051606863E1
5.941249167E0,1.350649864E1,-3.584643508E1,1.342988608E1,4.059253938E1
5.951319167E0,1.488292034E1,-3.509752136E1,1.362209341E1,4.048331449E1
5.961389167E0,1.701708973E1,-3.414246990E1,1.398745668E1,4.063174299E1
5.971459167E0,1.930542565E1,-3.289842098E1,1.459611324E1,4.084179335E1
5.981529167E0,2.129604823E1,-3.198448246E1,1.515674896E1,4.130684964E1
5.991598167E0,2.269080329E1,-3.096029118E1,1.567512567E1,4.146229310E1
6.001668167E0,2.354416700E1,-2.980579353E1,1.631805861E1,4.133995845E1
6.011738167E0,2.338527710E1,-2.820170114E1,1.605180565E1,3.999834492E1
6.021808167E0,2.300322003E1,-2.666114224E1,1.405926517E1,3.791605959E1
6.031878167E0,2.217330366E1,-2.433579580E1,1.141731304E1,3.484596661E1
6.041948167E0,2.039999986E1,-2.223648633E1,9.505429062E0,3.163818105E1
6.052018167E0,1.767048918E1,-2.081689698E1,7.524421635E0,2.832324679E1
6.062088167E0,1.309945174E1,-1.967033517E1,6.084813752E0,2.440374315E1
6.072158167E0,6.876584639E0,-1.894063072E1,5.622698944E0,2.092007772E1
6.082227167E0,5.140872002E-1,-1.856173583E1,5.980999947E0,1.950832343E1
6.092297167E0,-5.088945218E0,-1.987659921E1,7.036731105E0,2.169083088E1
6.102367167E0,-1.071787963E1,-2.334953892E1,7.749713684E0,2.683527480E1
6.112437167E0,-1.677598915E1,-2.701742011E1,7.803951287E0,3.274563264E1
6.122507167E0,-2.237474492E1,-2.942217409E1,7.954979020E0,3.780972400E1
6.132577167E0,-2.595291813E1,-3.092205741E1,9.180354277E0,4.140056157E1
6.142647167E0,-2.757412884E1,-3.199502850E1,1.271451433E1,4.410978694E1
6.152717167E0,-2.753584361E1,-3.393134565E1,1.653126680E1,4.672089129E1
6.162787167E0,-2.741630313E1,-3.492720834E1,1.978818931E1,4.861209722E1
6.172856167E0,-2.663843166E1,-3.462210063E1,2.139039657E1,4.863995229E1
6.182926167E0,-2.622075803E1,-3.344704417E1,2.147200031E1,4.761596069E1
6.192996167E0,-2.566814002E1,-3.228592514E1,2.039977532E1,4.601505413E1
6.203066167E0,-2.387116668E1,-3.097745159E1,1.841950231E1,4.322861519E1
6.213136167E0,-2.015772632E1,-2.971452785E1,1.630310728E1,3.943448241E1
6.223206167E0,-1.436647905E1,-2.897695539E1,1.433522568E1,3.537737073E1
6.233276167E0,-7.495494874E0,-2.881081728E1,1.252654272E1,3.229798614E1
6.243346167E0,-5.943063211E-1,-2.920055994E1,1.107221973E1,3.123491556E1
6.253415167E0,5.507371970E0,-2.967045154E1,9.913367078E0,3.176384245E1
6.263485167E0,1.109550334E1,-3.052087994E1,9.725542817E0,3.390015472E1
6.273555167E0,1.680640520E1,-3.182441844E1,1.050991639E1,3.749276206E1
6.283625167E0,2.138238354E1,-3.278165910E1,1.178067891E1,4.087331519E1
6.293695167E0,2.447908766E1,-3.315657321E1,1.332764751E1,4.331524291E1
6.303765167E0,2.635965279E1,-3.363372238E1,1.456848281E1,4.514752781E1
6.313835167E0,2.671775031E1,-3.332838078E1,1.538849165E1,4.540291645E1
6.323905167E0,2.600270132E1,-3.287736866E1,1.545348229E1,4.467518283E1
6.333975167E0,2.463471248E1,-3.217860300E1,1.466891459E1,4.309882371E1
6.344045167E0,2.267019303E1,-3.131194039E1,1.351578636E1,4.095182223E1
6.354114167E0,2.006512748E1,-3.058641787E1,1.271906580E1,3.872870943E1
6.364184167E0,1.688827557E1,-2.990969622E1,1.275953789E1,3.664163734E1
6.374254167E0,1.347545811E1,-2.915093111E1,1.278015400E1,3.456439052E1
6.384324167E0,1.030649761E1,-2.861133134E1,1.237046416E1,3.283078673E1
6.394394167E0,7.752734941E0,-2.843528103E1,1.168934189E1,3.170663685E1
6.404464167E0,5.981170685E0,-2.794278877E1,1.120336693E1,3.069347288E1
6.414534167E0,4.876403607E0,-2.725474924E1,1.093689528E1,2.976938606E1
6.424604167E0,3.889913422E0,-2.638857312E1,9.981414635E0,2.848011334E1
6.434674167E0,3.040517641E0,-2.557140836E1,8.870059499E0,2.723636592E1
6.444743167E0,2.237229493E0,-2.423349291E1,8.252868345E0,2.569780556E1
6.454813167E0,1.388081049E0,-2.292450481E1,7.665960506E0,2.421211763E1
6.464883167E0,4.310736948E-1,-2.164335647E1,6.985349282E0,2.274677578E1
6.474953167E0,-1.360559374E-1,-2.021590612E1,6.018347282E0,2.109317130E1
6.485023167E0,-5.530910522E-1,-1.921784605E1,4.698516397E0,1.979160359E1
6.495093167E0,-8.050458205E-1,-1.858916746E1,3.004299402E0,1.884757439E1
6.505163167E0,-3.101199460E-1,-1.868085180E1,1.818051374E0,1.877167305E1
6.515233167E0,7.222439843E-1,-1.867343987E1,1.957192595E0,1.878961404E1
6.525303167E0,2.147032099E0,-1.849037056E1,2.252880735E0,1.875044058E1
6.535372167E0,4.236852701E0,-1.987549058E1,1.629312024E0,2.038726819E1
6.545442167E0,6.966586152E0,-2.120958663E1,1.753793836E0,2.239320612E1
6.555512167E0,1.081866575E1,-2.312691437E1,3.133536609E0,2.572385563E1
6.565582167E0,1.633661884E1,-2.515569004E1,6.447713006E0,3.068007268E1
6.575652167E0,2.434530103E1,-2.668159347E1,9.191075732E0,3.727032312E1
6.585722167E0,3.252226491E1,-2.879622263E1,1.181375310E1,4.501649604E1
6.595792167E0,3.863086982E1,-3.016397058E1,1.540464985E1,5.137618574E1
6.605862167E0,4.348123343E1,-3.073427992E1,1.956691313E1,5.672810338E1
6.615932167E0,4.761998155E1,-2.920292221E1,2.360433718E1,6.064353257E1
6.626002167E0,5.187528573E1,-2.555741480E1,2.687954510E1,6.377097040E1
6.636071167E0,5.714873048E1,-2.094040421E1,2.753994367E1,6.680513768E1
6.646141167E0,6.256560977E1,-1.465468597E1,2.657519753E1,6.953744653E1
6.656211167E0,6.924591332E1,-7.487601718E0,2.324335114E1,7.342556818E1
6.666281167E0,7.287014856E1,-3.372257082E0,1.918117114E1,7.542776674E1
6.676351167E0,7.187328717E1,-4.903272148E0,1.728779126E1,7.408562082E1
6.686421167E0,6.780162299E1,-4.517222598E0,1.544290350E1,6.968463710E1
6.696491167E0,6.199267619E1,-8.968191565E0,1.405847112E1,6.419626914E1
6.706561167E0,5.388028194E1,-1.306834455E1,1.476247939E1,5.737418591E1
6.716631167E0,4.464799620E1,-1.657900815E1,1.554706347E1,5.010008242E1
6.726701167E0,3.618425679E1,-1.982981681E1,1.361037442E1,4.344841040E1
6.736770167E0,2.909010369E1,-2.191537362E1,9.999884820E0,3.776923921E1
6.746840167E0,2.349516499E1,-2.382600747E1,5.900717676E0,3.397822654E1
6.756910167E0,1.911182550E1,-2.555835971E1,2.796026258E0,3.203606387E1
6.766983667E0,1.514357752E1,-2.750513871E1,1.500712309E0,3.143426049E1
6.777053667E0,1.146088299E1,-2.917882700E1,1.774950963E0,3.139914386E1
6.787123667E0,8.350805699E0,-3.080737480E1,2.850780755E0,3.204617370E1
6.797193667E0,5.991737773E0,-3.262586354E1,4.333396663E0,3.345334393E1
6.807263667E0,4.068519548E0,-3.366177966E1,5.254255360E0,3.431144795E1
6.817333667E0,2.893479463E0,-3.402903859E1,6.639412801E0,3.479122725E1
6.827403667E0,2.120548890E0,-3.421333114E1,8.176325369E0,3.524061650E1
6.837472667E0,2.317183735E0,-3.385735966E1,1.008635461E1,3.540373841E1
6.847542667E0,3.339594535E0,-3.317189993E1,1.153014209E1,3.527707489E1
6.857612667E0,4.417322626E0,-3.207653868E1,1.248639690E1,3.470341742E1
6.867682667E0,5.672607268E0,-3.030721566E1,1.281106823E1,3.338905904E1
6.877752667E0,7.387850558E0,-2.838026809E1,1.316304956E1,3.214476359E1
6.887822667E0,9.220743334E0,-2.701872989E1,1.303672281E1,3.138455056E1
6.897892667E0,1.141791882E1,-2.533635497E1,1.294510162E1,3.065738751E1
6.907962667E0,1.420402118E1,-2.322641760E1,1.282272758E1,3.009390362E1
6.918032667E0,1.727253353E1,-2.161911158E1,1.203061931E1,3.017386619E1
6.928101667E0,2.092872849E1,-2.012915917E1,1.124676614E1,3.113975712E1
6.938171667E0,2.554031754E1,-1.894677732E1,1.039440348E1,3.345641664E1
6.948241667E0,2.998610763E1,-1.787266953E1,9.042071135E0,3.606047722E1
6.958311667E0,3.282000280E1,-1.693599938E1,7.911912523E0,3.777008099E1
6.968381667E0,3.370470524E1,-1.613932326E1,6.618795519E0,3.795119714E1
6.978451667E0,3.307724052E1,-1.476642977E1,4.821511116E0,3.654310138E1
6.988521667E0,3.133491293E1,-1.326757322E1,3.589968216E0,3.421685461E1
6.998591667E0,2.916203614E1,-1.215788630E1,3.623635315E0,3.180203270E1
7.008661667E0,2.642365173E1,-1.131963881E1,3.403711009E0,2.894700058E1
7.018730667E0,2.344441584E1,-1.050491819E1,2.829149566E0,2.584565781E1
7.028800667E0,2.014588454E1,-1.069498778E1,2.393272383E0,2.293397437E1
7.038870667E0,1.598889311E1,-1.196086203E1,2.406988636E0,2.011219823E1
7.048940667E0,1.056174377E1,-1.364758727E1,3.699604387E0,1.764919665E1
7.059010667E0,4.689943501E0,-1.562690603E1,5.550297550E0,1.723373334E1
7.069080667E0,-9.087239707E-1,-1.800864068E1,7.628825424E0,1.957896565E1
7.079150667E0,-5.231462914E0,-2.229119990E1,9.893189507E0,2.494275437E1
7.089220667E0,-8.005185553E0,-2.691652290E1,1.134438189E1,3.028658451E1
7.099290667E0,-9.390308495E0,-3.157565917E1,1.362885513E1,3.565032732E1
7.109359667E0,-9.767898878E0,-3.462041897E1,1.612302239E1,3.942000899E1
7.119429667E0,-9.780784387E0,-3.488967623E1,2.005257468E1,4.141327084E1
7.129499667E0,-1.029417051E1,-3.568375618E1,2.177470832E1,4.305157749E1
7.139569667E0,-1.206921912E1,-3.512840635E1,2.172068707E1,4.302858619E1
7.149639667E0,-1.409967411E1,-3.408758793E1,2.135926833E1,4.262608127E1
7.159709667E0,-1.612258268E1,-3.291447041E1,2.124224216E1,4.236192732E1
7.169779667E0,-1.816440583E1,-3.159849840E1,2.151905168E1,4.232588245E1
7.179849667E0,-1.878859142E1,-3.013669448E1,2.052157984E1,4.101666443E1
7.189919667E0,-1.695958471E1,-2.872029069E1,1.719398789E1,3.752486949E1
7.199988667E0,-1.368588069E1,-2.707058300E1,1.302605632E1,3.301208774E1
7.210058667E0,-9.689100630E0,-2.548181498E1,9.250616759E0,2.878846082E1
7.220128667E0,-4.936698925E0,-2.455939098E1,5.925091209E0,2.574182176E1
7.230198667E0,9.555636764E-2,-2.437551008E1,3.518602949E0,2.462834119E1
7.240268667E0,4.615102065E0,-2.494358580E1,2.155509392E0,2.545835541E1
7.250338667E0,9.344157591E0,-2.607857245E1,2.820369094E0,2.784528154E1
7.260408667E0,1.421161320E1,-2.754377711E1,4.926382098E0,3.138309812E1
7.270478667E0,1.857041543E1,-2.939905186E1,7.925603778E0,3.566482546E1
7.280548667E0,2.284519318E1,-3.117278368E1,1.152381891E1,4.032919161E1
7.290618667E0,2.605525142E1,-3.248332480E1,1.388834638E1,4.389679580E1
7.300687667E0,2.780281578E1,-3.288151551E1,1.499266439E1,4.559573020E1
7.310757667E0,2.846003580E1,-3.209079653E1,1.470099124E1,4.534216584E1
7.320827667E0,2.764587885E1,-3.039010579E1,1.324572451E1,4.316598621E1
7.330897667E0,2.504077821E1,-2.900436246E1,1.147094371E1,3.999845203E1
7.340967667E0,2.106129188E1,-2.808371368E1,9.843720893E0,3.645780891E1
7.351037667E0,1.617262315E1,-2.784070340E1,9.092011034E0,3.345628745E1
7.361107667E0,1.119452243E1,-2.873834689E1,9.278168839E0,3.220705407E1
7.371177667E0,7.599219802E0,-2.925375790E1,1.026549810E1,3.192038446E1
7.381247667E0,5.553852072E0,-2.933819871E1,1.039375794E1,3.161653651E1
7.391316667E0,4.299012111E0,-2.949316630E1,8.839496103E0,3.108802108E1
7.401386667E0,3.150274556E0,-2.928493994E1,7.446113384E0,3.038052898E1
7.411456667E0,1.896046214E0,-2.859392301E1,7.104082843E0,2.952414973E1
7.421526667E0,1.019234008E0,-2.769904641E1,7.021192714E0,2.859323621E1
7.431596667E0,4.512085819E-1,-2.680866282E1,6.908992832E0,2.768830391E1
7.441666667E0,2.145974922E-1,-2.561982798E1,6.624018252E0,2.646316791E1
7.451736667E0,5.011736244E-1,-2.400177477E1,5.705339981E0,2.467564126E1
7.461806667E0,1.378635457E0,-2.254677468E1,4.225710831E0,2.298073794E1
7.471876667E0,2.970605991E0,-2.125600884E1,2.183700865E0,2.157338548E1
7.481946667E0,4.874582199E0,-2.008328893E1,3.765212193E-1,2.066982859E1
7.492015667E0,7.287978360E0,-2.011964224E1,-1.472344104E0,2.144953215E1
7.502085667E0,9.316451730E0,-2.092878930E1,-2.496524856E0,2.304437308E1
7.512155667E0,9.691559384E0,-2.078012501E1,-5.028245857E-1,2.293453185E1
7.522225667E0,9.871552470E0,-1.965280522E1,2.917874047E0,2.218545222E1
7.532295667E0,1.125227304E1,-1.818612356E1,5.291574630E0,2.203064912E1
7.542365667E0,1.564469910E1,-1.615677837E1,5.365030276E0,2.312102176E1
7.552435667E0,2.277067626E1,-1.636086257E1,2.478912458E0,2.814829530E1
7.562505667E0,2.991823549E1,-1.756896983E1,1.291189908E0,3.471939929E1
7.572575667E0,3.562857484E1,-2.120058659E1,3.368761032E0,4.159577825E1
7.582644667E0,3.969075016E1,-2.448769009E1,9.625753065E0,4.761993003E1
7.592714667E0,4.396046187E1,-2.523118928E1,1.812543531E1,5.382997795E1
7.602784667E0,4.939638438E1,-2.379660065E1,2.556491795E1,6.049666125E1
7.612854667E0,5.496641394E1,-1.953469029E1,3.120897092E1,6.615822438E1
7.622924667E0,6.280772192E1,-7.869121429E0,3.135734987E1,7.064004810E1
7.632994667E0,7.233590951E1,8.587555368E0,2.085565232E1,7.577062852E1
7.643064667E0,6.994486609E1,-4.661938262E0,5.303529847E1,8.790199568E1
7.653134667E0,5.222102457E1,-3.019165363E0,6.304031013E1,8.191600251E1
7.663204667E0,4.771820074E1,-1.274358318E1,3.385524531E1,5.987990672E1
7.673274667E0,5.361968323E1,-4.993884695E0,1.396829185E1,5.563382507E1
7.683344667E0,5.068088200E1,-6.316559958E0,8.325848613E0,5.174717852E1
7.693413667E0,3.960651283E1,-9.878512995E0,1.200648785E1,4.254899092E1
7.703483667E0,2.855893093E1,-1.184517837E1,1.781416229E1,3.568284132E1
7.713553667E0,2.283602942E1,-1.462085164E1,1.458205420E1,3.078781978E1
7.723623667E0,2.091202416E1,-1.801101933E1,8.665428586E0,2.892748216E1
7.733693667E0,2.034085176E1,-2.177706592E1,5.852647716E0,3.036847602E1
7.743763667E0,1.855223293E1,-2.467763572E1,4.432727993E0,3.119006459E1
7.753833667E0,1.567170739E1,-2.710177672E1,4.335426524E0,3.160545265E1
7.763903167E0,1.285449316E1,-2.982342640E1,4.387617017E0,3.277080926E1
7.773973167E0,1.040183178E1,-3.275292588E1,3.981812941E0,3.459489980E1
7.784043167E0,8.159604086E0,-3.512310410E1,4.205416315E0,3.630285260E1
7.794112167E0,6.159239452E0,-3.687681271E1,4.843789008E0,3.770010396E1
7.804182167E0,4.594703468E0,-3.733720610E1,5.538414254E0,3.802436445E1
7.814252167E0,3.892680325E0,-3.667497150E1,6.293731259E0,3.741413567E1
7.824322167E0,3.935598888E0,-3.525769531E1,6.852104101E0,3.613233106E1
7.834392167E0,4.793295962E0,-3.348777587E1,7.052671784E0,3.455643209E1
7.844462167E0,6.538186973E0,-3.158391310E1,7.046371994E0,3.301428197E1
7.854532167E0,8.302113011E0,-2.958173759E1,7.538817480E0,3.163602453E1
7.864602167E0,9.689202372E0,-2.781921371E1,8.355865295E0,3.062041441E1
7.874672167E0,1.106207130E1,-2.652224514E1,9.634684687E0,3.030884455E1
7.884742167E0,1.236771246E1,-2.457732556E1,1.063633436E1,2.949808218E1
7.894811167E0,1.405905584E1,-2.210046372E1,1.041065640E1,2.818633205E1
7.904881167E0,1.730374363E1,-1.951852976E1,8.348785486E0,2.738785802E1
7.914951167E0,2.128781535E1,-1.692264083E1,4.838262804E0,2.762165169E1
7.925021167E0,2.511412335E1,-1.433020994E1,2.084397894E0,2.898997798E1
7.935091167E0,2.867539343E1,-1.232111483E1,-1.045192721E-1,3.121055884E1
7.945161167E0,3.142799593E1,-1.067136269E1,-1.042040195E0,3.320666737E1
7.955231167E0,3.281671432E1,-9.072175525E0,-1.392860417E0,3.407610846E1
7.965301167E0,3.366143818E1,-7.957669909E0,-1.624438369E0,3.462738412E1
7.975371167E0,3.452723774E1,-6.703145113E0,-1.769826755E0,3.521639657E1
7.985440167E0,3.397587805E1,-5.870034996E0,-1.612290194E0,3.451691005E1
7.995510167E0,3.205972209E1,-5.588007998E0,-1.198352934E0,3.256512957E1
8.005580167E0,2.913610725E1,-6.289329475E0,-5.235006326E-1,2.981178397E1
8.015650167E0,2.511913090E1,-7.057506847E0,6.821369089E-2,2.609183385E1
8.025720167E0,1.964537224E1,-9.144938861E0,1.848304868E-1,2.167036501E1
8.035790167E0,1.367653216E1,-1.311632563E1,-9.388115497E-1,1.897279360E1
8.045860167E0,6.759478358E0,-1.999162564E1,-2.716134582E0,2.127752407E1
8.055930167E0,-1.116967294E0,-2.773670482E1,-1.628384070E0,2.780690642E1
8.066000167E0,-7.982473213E0,-3.492050041E1,2.054574755E0,3.588011295E1
8.076069167E0,-1.248546369E1,-4.282295857E1,8.619152552E0,4.543107279E1
8.086139167E0,-1.578008319E1,-4.952234744E1,1.615892547E1,5.442963158E1
8.096209167E0,-2.079335375E1,-5.255100400E1,2.249214999E1,6.082654349E1
8.106279167E0,-2.586092038E1,-5.376229916E1,2.739352705E1,6.564737115E1
8.116349167E0,-2.828378435E1,-5.343370903E1,2.848782411E1,6.683329889E1
8.126419167E0,-2.788431427E1,-5.151679527E1,2.612687279E1,6.414147379E1
8.136489167E0,-2.573796045E1,-4.863806600E1,2.236707571E1,5.940025377E1
8.146559167E0,-2.218979515E1,-4.531115933E1,1.812469271E1,5.360963211E1
8.156629167E0,-1.754969857E1,-4.170092935E1,1.419472995E1,4.741782141E1
8.166698167E0,-1.224790184E1,-3.810130387E1,1.038397204E1,4.134667256E1
8.176768167E0,-6.235667238E0,-3.481452782E1,6.350950942E0,3.593423814E1
8.186838167E0,7.908546281E-1,-3.244013025E1,1.678922725E0,3.249317287E1
8.196908167E0,7.493992140E0,-3.115606532E1,-2.867011456E0,3.217266043E1
8.206978167E0,1.339496768E1,-3.183591640E1,-5.218808370E0,3.493117079E1
8.217048167E0,1.906300710E1,-3.508547376E1,-4.036964464E0,4.013335010E1
8.227118167E0,2.303569312E1,-3.964780821E1,-3.860157819E-1,4.585565245E1
8.237188167E0,2.559992172E1,-4.327018169E1,5.610125091E0,5.058792464E1
8.247258167E0,2.808200629E1,-4.611239160E1,1.243526651E1,5.540385898E1
8.257328167E0,2.934779516E1,-4.704316074E1,2.030762788E1,5.904872398E1
8.267397167E0,2.890303957E1,-4.496131808E1,2.459137759E1,5.883571766E1
8.277467167E0,2.664203354E1,-4.210432642E1,2.375699863E1,5.519934092E1
8.287537167E0,2.330295532E1,-3.926152711E1,1.955026961E1,4.966596701E1
8.297607167E0,1.980532633E1,-3.613225400E1,1.390292583E1,4.348657352E1
8.307677167E0,1.689479054E1,-3.335793494E1,9.842787677E0,3.866608644E1
8.317747167E0,1.427073440E1,-3.115453101E1,7.317835997E0,3.504011111E1
8.327817167E0,1.207315546E1,-2.999537898E1,6.232268836E0,3.292909075E1
8.337887167E0,9.994891298E0,-2.932153415E1,6.221136907E0,3.159672074E1
8.347957167E0,7.758772191E0,-2.894160780E1,5.983299072E0,3.055511538E1
8.358027167E0,5.875430222E0,-2.872597886E1,5.421716693E0,2.981773891E1
8.368096167E0,4.611100230E0,-2.828778618E1,4.593511806E0,2.902690895E1
8.378166167E0,3.986950890E0,-2.796737046E1,3.116588747E0,2.842151849E1
8.388236167E0,3.938192128E0,-2.762155443E1,1.640487661E0,2.794907559E1
8.398306167E0,3.912706454E0,-2.695591442E1,9.778000528E-1,2.725594773E1
8.408376167E0,3.480531728E0,-2.624150395E1,1.411300342E0,2.650891170E1
8.418446167E0,2.692583166E0,-2.520604626E1,2.477586602E0,2.547024160E1
8.428516167E0,2.134168224E0,-2.412331032E1,3.804295567E0,2.451451487E1
8.438586167E0,2.054649015E0,-2.290512948E1,4.473343045E0,2.342813131E1
8.448656167E0,3.210404398E0,-2.248793766E1,4.203330613E0,2.310155892E1
8.458725167E0,5.192207047E0,-2.168826309E1,3.742815603E0,2.261301480E1
8.468795167E0,7.294313818E0,-2.036336588E1,2.893591729E0,2.182307396E1
8.478865167E0,9.392264389E0,-1.967029541E1,1.896716305E0,2.187996080E1
8.488935167E0,1.171640748E1,-1.889858924E1,8.370277512E-1,2.225155040E1
8.499005167E0,1.392667137E1,-1.756195902E1,1.552114305E0,2.246739056E1
8.509075167E0,1.648770037E1,-1.496719275E1,3.658830875E0,2.256652755E1
8.519145167E0,2.159345867E1,-1.317822777E1,4.250309483E0,2.565167198E1
8.529215167E0,2.822098525E1,-1.236425091E1,3.607978810E0,3.102122209E1
8.539285167E0,3.559905576E1,-1.319384685E1,3.879765580E0,3.816310976E1
8.549355167E0,4.276173589E1,-1.524451216E1,6.164886693E0,4.581448499E1
8.559425167E0,4.833953991E1,-1.684845253E1,1.198084898E1,5.257492000E1
8.569494167E0,5.235911242E1,-1.662158056E1,2.042768058E1,5.860924609E1
8.579564167E0,5.699469143E1,-1.439767745E1,2.787515051E1,6.505929590E1
8.589634167E0,6.218181725E1,-1.095067834E1,3.066606631E1,7.019190391E1
8.599704167E0,6.578411841E1,-5.955523043E0,3.060179371E1,7.279758422E1
8.609774167E0,6.767443435E1,-2.049079542E0,2.741105935E1,7.304378116E1
8.619844167E0,6.728862571E1,-2.590719992E-1,2.253286766E1,7.096165438E1
8.629914167E0,6.444221048E1,-7.702654123E-2,1.757887267E1,6.679686512E1
8.639984167E0,5.989949929E1,-1.761193049E0,1.337856507E1,6.140063370E1
8.650054167E0,5.378543075E1,-5.478153434E0,1.065732002E1,5.510409418E1
8.660124167E0,4.694462814E1,-9.597216899E0,1.011348219E1,4.897128961E1
8.670194167E0,4.022528390E1,-1.356730968E1,1.088266353E1,4.382439643E1
8.680263167E0,3.414028538E1,-1.670044079E1,1.082356104E1,3.951725296E1
8.690333167E0,2.878385460E1,-1.873377495E1,9.701840544E0,3.568739721E1
8.700403167E0,2.449670415E1,-1.992694608E1,7.663071982E0,3.249452826E1
8.710473167E0,2.060680418E1,-2.116877306E1,5.615668252E0,3.007146590E1
8.720543167E0,1.714985193E1,-2.272596377E1,4.232297720E0,2.878366194E1
8.730613167E0,1.425985741E1,-2.439672846E1,2.949180039E0,2.841199669E1
8.740683167E0,1.169018272E1,-2.596477862E1,2.205051681E0,2.856032832E1
8.750753167E0,9.475353323E0,-2.705489375E1,1.762182983E0,2.872028700E1
8.760820042E0,7.792120031E0,-2.780411152E1,1.177227529E0,2.889933592E1
8.770890042E0,6.810265519E0,-2.835455203E1,4.953772430E-1,2.916514591E1
8.780959042E0,6.352347257E0,-2.863325606E1,1.360623693E-1,2.932974908E1
8.791029042E0,6.333168975E0,-2.870921139E1,-2.730906987E-1,2.940072153E1
8.801099042E0,6.224539987E0,-2.828864455E1,-2.812056839E-1,2.896672894E1
8.811169042E0,6.424912958E0,-2.792654754E1,3.673454762E-1,2.865844564E1
8.821239042E0,7.287819901E0,-2.772371698E1,1.163997765E0,2.868922608E1
8.831309042E0,8.815365229E0,-2.743283438E1,2.343276350E0,2.890954877E1
8.841379042E0,1.042192398E1,-2.729602824E1,4.217691083E0,2.952081597E1
8.851449042E0,1.211152255E1,-2.689722007E1,6.409023149E0,3.018650367E1
8.861519042E0,1.414177172E1,-2.592661501E1,7.821761906E0,3.055092524E1
8.871589042E0,1.682935084E1,-2.453861933E1,9.034182072E0,3.109641996E1
8.881658042E0,2.006539411E1,-2.315535522E1,9.977716856E0,3.222336652E1
8.891728042E0,2.387957966E1,-2.160652369E1,1.033607165E1,3.382174697E1
8.901798042E0,2.809120045E1,-2.022793033E1,1.088632388E1,3.628769428E1
8.911868042E0,3.287913686E1,-1.885974619E1,1.131654915E1,3.955745128E1
8.921938042E0,3.734963026E1,-1.737116788E1,1.058313289E1,4.252946103E1
8.932008042E0,4.046266215E1,-1.639300354E1,8.914883670E0,4.455819503E1
8.942078042E0,4.081944989E1,-1.559541175E1,7.366576048E0,4.431377664E1
8.952148042E0,3.851949205E1,-1.492199845E1,7.714009416E0,4.202288956E1
8.962218042E0,3.503955908E1,-1.437071477E1,8.307175530E0,3.877237817E1
8.972288042E0,3.136068746E1,-1.353009917E1,8.959104992E0,3.531036482E1
8.982357042E0,2.833655664E1,-1.282347251E1,8.715485430E0,3.230110797E1
8.992427042E0,2.572432006E1,-1.300060222E1,7.411335315E0,2.976044677E1
9.002497042E0,2.268705874E1,-1.424535281E1,5.506203697E0,2.734869265E1
9.012567042E0,1.826997965E1,-1.675133144E1,3.089019710E0,2.497881711E1
9.022637042E0,1.148594766E1,-1.964757547E1,6.323225784E-1,2.276739000E1
9.032707042E0,2.592694597E0,-2.339503961E1,-1.763814940E0,2.360425781E1
9.042777042E0,-7.022469161E0,-2.872866624E1,-4.124010794E0,2.986065643E1
9.052847042E0,-1.665152064E1,-3.388109234E1,-5.196911716E0,3.810786598E1
9.062917042E0,-2.401705472E1,-3.930270554E1,-3.004452599E0,4.615786299E1
9.072987042E0,-2.956869362E1,-4.368911832E1,2.721788839E0,5.282475591E1
9.083056042E0,-3.349464518E1,-4.484140806E1,8.448876954E0,5.660412224E1
9.093126042E0,-3.385299764E1,-4.457733845E1,8.516264945E0,5.661882479E1
9.103196042E0,-3.040939927E1,-4.472823871E1,3.296946991E0,5.418686890E1
9.113266042E0,-2.620358125E1,-4.389334052E1,-3.125378866E0,5.121543717E1
9.123336042E0,-2.425417100E1,-4.154752647E1,-6.771803119E0,4.858311522E1
9.133406042E0,-2.466262475E1,-3.894163997E1,-6.386169891E0,4.653471338E1
9.143476042E0,-2.544013135E1,-3.707020118E1,-3.348340216E0,4.508449269E1
9.153546042E0,-2.382067481E1,-3.586495906E1,-4.765995312E-1,4.305748464E1
9.163616042E0,-1.938764334E1,-3.487252518E1,7.920044830E-1,3.990740530E1
9.173685042E0,-1.265099719E1,-3.392850625E1,2.923362243E-1,3.621155515E1
9.183755042E0,-5.032266988E0,-3.286111340E1,-1.019880710E0,3.325983526E1
9.193825042E0,2.543554596E0,-3.245961551E1,-2.108236992E0,3.262730409E1
9.203895042E0,8.771048012E0,-3.295353917E1,-1.965051837E0,3.415740704E1
9.213965042E0,1.405471253E1,-3.414997305E1,-1.096879184E-1,3.692922467E1
9.224035042E0,1.889392667E1,-3.652646860E1,2.592312773E0,4.120538143E1
9.234105042E0,2.184530994E1,-3.909449789E1,5.825885010E0,4.516124741E1
9.244175042E0,2.427767915E1,-4.122962505E1,8.161030222E0,4.853751231E1
9.254245042E0,2.618729324E1,-4.298982408E1,9.160034033E0,5.116449477E1
9.264315042E0,2.847982278E1,-4.308279013E1,9.071070986E0,5.243578396E1
9.274384042E0,2.902905174E1,-4.213474129E1,8.822711670E0,5.192169595E1
9.284454042E0,2.787540311E1,-4.054121598E1,8.020523969E0,4.984934400E1
9.294524042E0,2.629462240E1,-3.905867316E1,6.732168353E0,4.756373836E1
9.304594042E0,2.413834936E1,-3.765908830E1,5.652335556E0,4.508675791E1
9.314664042E0,2.073827298E1,-3.619182777E1,5.853985559E0,4.212117651E1
9.324734042E0,1.682327441E1,-3.507543292E1,6.119643862E0,3.937967239E1
9.334804042E0,1.338974728E1,-3.382911294E1,6.131602587E0,3.689567406E1
9.344874042E0,1.074339571E1,-3.191981459E1,5.613827548E0,3.414396249E1
9.354944042E0,8.731158307E0,-3.072550910E1,4.327295094E0,3.223376363E1
9.365014042E0,7.052739612E0,-2.898498245E1,3.513412961E0,3.003688423E1
9.375083042E0,6.003370809E0,-2.754056348E1,2.428900345E0,2.829174181E1
9.385153042E0,5.319230205E0,-2.617646420E1,1.918655935E0,2.678026752E1
9.395223042E0,4.410874025E0,-2.464044509E1,1.389377961E0,2.507065446E1
9.405293042E0,3.526305487E0,-2.323031887E1,1.175365775E0,2.352581624E1
9.415363042E0,2.715674990E0,-2.204156823E1,6.854880944E-1,2.221880993E1
9.425433042E0,2.106696836E0,-2.060312511E1,4.327150083E-1,2.071507128E1
9.435503042E0,1.900123478E0,-1.965752275E1,1.631859948E-1,1.974981771E1
9.445573042E0,2.435340761E0,-1.920096748E1,-7.436751992E-1,1.936907560E1
9.455643042E0,3.717866119E0,-1.940852024E1,-1.285824941E0,1.980319500E1
9.465713042E0,4.607676101E0,-1.924777327E1,-5.906776853E-1,1.980041300E1
9.475782042E0,5.424718069E0,-1.893252181E1,8.118619198E-1,1.971108997E1
9.485852042E0,6.870958448E0,-1.837131306E1,2.758091277E0,1.980712703E1
9.495922042E0,1.016080253E1,-1.790881351E1,3.870966690E0,2.095117879E1
9.505992042E0,1.519049558E1,-1.710667960E1,4.207838817E0,2.326146062E1
9.516062042E0,2.152049244E1,-1.740746973E1,4.156557566E0,2.798979400E1
9.526132042E0,2.839043055E1,-1.813030019E1,4.054132474E0,3.392875361E1
9.536202042E0,3.590368634E1,-1.968785577E1,4.829734640E0,4.123121019E1
9.546272042E0,4.335662693E1,-2.196082988E1,8.270100090E0,4.929979415E1
9.556342042E0,5.011674263E1,-2.382170626E1,1.579168758E1,5.769349164E1
9.566412042E0,5.580201848E1,-2.285885227E1,2.843913084E1,6.667215728E1
9.576482042E0,6.393907863E1,-1.916735300E1,4.067544934E1,7.816703510E1
9.586551042E0,7.224161030E1,-1.535715993E1,4.548411530E1,8.673809638E1
9.596621042E0,7.254489368E1,-1.124954239E1,4.632231600E1,8.680478537E1
9.606691042E0,7.225112489E1,-8.556799598E0,4.606733997E1,8.611413170E1
9.616761042E0,7.192697864E1,-7.747448473E0,4.074549431E1,8.302835974E1
9.626831042E0,7.134941407E1,-8.412897867E0,3.075381196E1,7.814929743E1
9.636901042E0,6.691651826E1,-1.002182357E1,2.131601531E1,7.094103095E1
9.646971042E0,5.619564836E1,-1.304201805E1,1.511846490E1,5.963734661E1
9.657041042E0,4.583108907E1,-1.642788569E1,1.180420225E1,5.009693947E1
9.667111042E0,3.798679667E1,-2.044776927E1,9.452164435E0,4.416391516E1
9.677181042E0,3.245783795E1,-2.523338550E1,7.751574268E0,4.183684849E1
9.687251042E0,2.716156099E1,-2.929444517E1,7.634245793E0,4.067181607E1
9.697320042E0,2.150324315E1,-3.165950357E1,8.089470828E0,3.911717232E1
9.707390042E0,1.701237220E1,-3.344331599E1,7.715012214E0,3.830662613E1
9.717460042E0,1.387309567E1,-3.542055897E1,5.873441584E0,3.849124703E1
9.727530042E0,1.133245357E1,-3.679443012E1,3.829384215E0,3.869003457E1
9.737600042E0,9.076801842E0,-3.741401512E1,1.727141496E0,3.853803157E1
9.747670042E0,7.132117903E0,-3.773368474E1,2.035842615E-1,3.840233738E1
9.757740042E0,5.163256897E0,-3.735037403E1,-4.968379140E-2,3.770559813E1
9.767809458E0,3.766349477E0,-3.692955460E1,4.975606298E-1,3.712445229E1
9.777879458E0,3.049866754E0,-3.618200912E1,1.497492979E0,3.634118816E1
9.787949458E0,2.989707091E0,-3.492987233E1,2.992602632E0,3.518508207E1
9.798019458E0,4.328532072E0,-3.358830121E1,4.571409330E0,3.417320516E1
9.808088458E0,6.492900288E0,-3.168463958E1,6.138421025E0,3.292042454E1
9.818158458E0,9.401762606E0,-3.009310232E1,9.071744585E0,3.280677517E1
9.828228458E0,1.307618450E1,-2.902057328E1,1.159331891E1,3.387602866E1
9.838298458E0,1.732257868E1,-2.796044736E1,1.286020121E1,3.531632942E1
9.848368458E0,2.160743586E1,-2.696665225E1,1.293955144E1,3.689869387E1
9.858438458E0,2.587633832E1,-2.552987675E1,1.169078732E1,3.818421139E1
9.868508458E0,3.005102576E1,-2.509922698E1,9.869548044E0,4.037874841E1
9.878578458E0,3.341070489E1,-2.464394640E1,9.270300826E0,4.253866210E1
9.888648458E0,3.548058649E1,-2.363743944E1,8.887187748E0,4.354977230E1
9.898718458E0,3.615484764E1,-2.235328563E1,8.171435342E0,4.328527165E1
9.908787458E0,3.541773126E1,-2.139304886E1,7.137828294E0,4.198841293E1
9.918857458E0,3.360375657E1,-2.064983969E1,6.552409741E0,3.998202606E1
9.928927458E0,3.122529167E1,-1.984637378E1,6.807630179E0,3.761969193E1
9.938997458E0,2.818048978E1,-1.959688011E1,7.336429558E0,3.509987055E1
9.949067458E0,2.457982817E1,-1.837247549E1,7.457257007E0,3.158047642E1
9.959137458E0,2.122828368E1,-1.699781380E1,6.574725055E0,2.797843297E1
9.969207458E0,1.863432784E1,-1.662652029E1,4.768969498E0,2.542483866E1
9.979277458E0,1.590355651E1,-1.629785180E1,3.406929317E0,2.302499186E1
9.989347458E0,1.235726699E1,-1.635977148E1,2.431524868E0,2.064597984E1
9.999417458E0,8.033850358E0,-1.720971690E1,1.657075188E0,1.906470575E1
1.000948746E1,3.561378255E0,-1.879569813E1,1.654500074E0,1.920153780E1