"Time (s)","Linear Acceleration x (m/s^2)","Linear Acceleration y (m/s^2)","Linear Acceleration z (m/s^2)","Absolute acceleration (m/s^2)"
1.486558333E-2,-1.072172944E0,-1.700893638E-1,-1.487675503E0,1.841646985E0
2.493558335E-2,-9.936284655E-1,-2.231288722E-1,-8.857239479E-1,1.349663267E0
3.500558337E-2,-9.151950842E-1,-3.797272477E-1,-6.895317364E-1,1.207157339E0
4.507558333E-2,-1.189198533E0,-3.386134279E-1,-1.162563881E0,1.697176179E0
5.514558335E-2,-8.590413487E-1,-5.917809087E-1,-4.470003408E-1,1.134885892E0
6.521558337E-2,-5.092533070E-1,-9.989903623E-1,1.535028777E-1,1.131761374E0
7.528558339E-2,-8.893451285E-1,-1.050535907E0,-1.762056610E-2,1.376543110E0
8.535558335E-2,-6.279570472E-1,-1.095983391E0,3.491717452E-1,1.310507747E0
9.542458336E-2,-5.193298137E-1,-1.022341803E0,1.000390186E0,1.521731494E0
1.054945834E-1,-5.798075652E-1,-1.062751325E0,8.227365714E-1,1.463732441E0
1.155645833E-1,-5.851975286E-1,-1.023369159E0,5.070366275E-1,1.283287467E0
1.256345834E-1,-5.051655185E-1,-9.181572837E-1,3.606188393E-1,1.108264836E0
1.357045834E-1,-4.013645768E-1,-1.030737820E0,7.851875067E-2,1.108909000E0
1.457745833E-1,-1.726565838E-2,-1.555914849E0,1.928177834E-1,1.567911929E0
1.558445834E-1,-2.930343819E-1,-1.955197817E-1,9.212350387E-2,3.641206860E-1
1.659145834E-1,-2.356562394E-1,-1.530672419E-1,-7.098519802E-2,2.898315753E-1
1.759845833E-1,-2.023352963E-1,-4.026673365E-1,-2.040081847E-1,4.946715025E-1
1.860545833E-1,-5.270914078E-2,-2.343306756E-1,-3.524900401E-1,4.265423161E-1
1.961245834E-1,1.234142572E-1,-1.258578086E-1,-3.742299879E-1,4.136657475E-1
2.061945834E-1,3.214612055E-1,-3.661345178E-1,-1.954034038E-1,5.249516949E-1
2.162645833E-1,2.428284341E-1,-3.637248802E-1,-3.404388921E-1,5.542202415E-1
2.263345834E-1,2.815843642E-1,-2.567448074E-1,-2.477646353E-1,4.545271881E-1
2.364045834E-1,1.886095423E-1,-2.719265181E-1,-2.692812194E-1,4.266496992E-1
2.464745833E-1,1.326873565E-1,-1.103480691E-1,-2.888559433E-1,3.364823723E-1
2.565445834E-1,4.748757720E-1,-2.354428160E-1,-2.612693828E-1,5.909331678E-1
2.666145834E-1,5.186369187E-1,-2.956352234E-1,-7.509853882E-1,9.593557692E-1
2.766845833E-1,4.866614199E-1,-1.228850842E-1,-5.799455595E-1,7.669921339E-1
2.867545834E-1,4.606588519E-1,-7.256394625E-3,-2.291640576E-1,5.145633084E-1
2.968245834E-1,5.036850035E-1,6.213485241E-2,-3.328492427E-1,6.069167497E-1
3.068945833E-1,4.366911149E-1,9.895593882E-2,-2.418449324E-1,5.089011486E-1
3.169645834E-1,4.777356452E-1,5.724014819E-2,-3.735897177E-1,6.091609463E-1
3.270345834E-1,5.787392789E-1,6.048009038E-2,-3.494155741E-1,6.787401842E-1
3.371045833E-1,6.158924872E-1,1.679256016E-1,-3.970458233E-1,7.517765288E-1
3.471745834E-1,7.534412187E-1,-1.005013579E-1,-2.909720689E-1,8.139035188E-1
3.572445834E-1,5.771371418E-1,1.055065745E-1,-4.664347315E-1,7.495200307E-1
3.673145833E-1,4.324618238E-1,4.597560418E-1,-3.165811193E-1,7.061320359E-1
3.773845833E-1,4.174841809E-1,3.120957202E-1,-3.204648765E-1,6.118778611E-1
3.874545834E-1,4.344446146E-1,3.133493632E-1,-5.119517970E-1,7.409619350E-1
3.975235834E-1,-3.495465517E-3,5.427332944E-1,-8.953905648E-1,1.047041504E0
4.075935833E-1,-1.000195473E-1,6.997111541E-1,-8.068397462E-1,1.072655576E0
4.176635834E-1,-9.292395115E-3,6.222554272E-1,-6.424686670E-1,8.944574632E-1
4.277335834E-1,1.581075418E-1,4.537392569E-1,-4.096494967E-1,6.314190511E-1
4.378035833E-1,3.923376453E-1,2.726714534E-1,-7.933619142E-2,4.843271422E-1
4.478735834E-1,5.978655213E-1,9.703688264E-2,2.472424972E-1,6.542080637E-1
4.579435834E-1,7.211891466E-1,1.097095531E-1,2.932320178E-1,7.862156113E-1
4.680135833E-1,7.443417817E-1,3.440197635E-1,1.646002901E-1,8.363537177E-1
4.780835834E-1,7.860289210E-1,4.806007808E-1,-4.686952651E-2,9.225049202E-1
4.881535834E-1,8.700411308E-1,5.313084197E-1,-1.797393161E-1,1.035164928E0
4.982235833E-1,8.695610744E-1,6.250433797E-1,-2.022668839E-1,1.089829152E0
5.082935833E-1,7.976028997E-1,5.661168945E-1,-2.264720178E-1,1.003966284E0
5.183635834E-1,7.502626723E-1,3.817442447E-1,-1.554061282E-1,8.560220853E-1
5.284335833E-1,6.915379161E-1,4.255205941E-1,7.038293481E-2,8.150130201E-1
5.385035833E-1,8.319102681E-1,7.434500813E-2,4.918958473E-1,9.693107855E-1
5.485735834E-1,7.983858418E-1,-1.676004964E-1,8.634524882E-1,1.187880498E0
5.586435834E-1,4.929074156E-1,-4.453455788E-1,-3.127125649E-1,7.342203710E-1
5.687135833E-1,2.753693587E-1,-2.342020369E-1,4.966437864E-1,6.142751243E-1
5.787835834E-1,3.291245663E-1,-3.355705369E-1,1.111925240E0,1.207190252E0
5.888535834E-1,3.097819769E-1,-9.056857574E-1,1.036089191E0,1.410571649E0
5.989235833E-1,1.124671000E-1,-1.081770564E0,1.387035567E0,1.762595831E0
6.089935834E-1,-2.825590950E-1,-1.014202479E0,1.298445572E0,1.671648053E0
6.190635834E-1,-7.023394775E-1,-7.293922055E-1,1.097529395E0,1.493273084E0
6.291335833E-1,-9.328232700E-1,-2.882899511E-1,1.456654855E0,1.753600215E0
6.392035834E-1,-1.042798871E0,-8.767549038E-2,1.382833757E0,1.734170026E0
6.492735834E-1,-1.254006148E0,1.551851034E-3,7.032411182E-1,1.437734989E0
6.593435833E-1,-1.533799510E0,4.540292788E-1,2.765874068E-1,1.623325019E0
6.694135834E-1,-1.444900197E0,8.735892212E-1,7.863043249E-1,1.862570589E0
6.794835834E-1,-1.372960734E0,1.063915506E0,1.101056435E0,2.056517117E0
6.895535833E-1,-2.294360299E0,1.032996599E0,-6.294164392E-1,2.593710895E0
6.996235834E-1,-2.446967365E0,1.534391833E0,-4.394767284E-3,2.888256722E0
7.096935834E-1,-2.253352021E0,1.745834168E0,3.164535769E-1,2.868043782E0
7.197635833E-1,-2.079185101E0,1.466251305E0,3.673139012E-1,2.570568629E0
7.298335833E-1,-2.019735875E0,1.663620561E0,5.218406812E-1,2.668198657E0
7.399035834E-1,-2.085006005E0,2.135756913E0,-2.084408127E-2,2.984818605E0
7.499735834E-1,-2.092829579E0,2.972969436E0,-2.780655098E-1,3.646341090E0
7.600435833E-1,-2.028845837E0,3.902485521E0,-9.569238118E-1,4.501256697E0
7.701135834E-1,-1.890849209E0,4.859670045E0,-2.333513839E0,5.712879354E0
7.801835834E-1,-1.535885212E0,5.715123543E0,-3.563775029E0,6.908116455E0
7.902535833E-1,-1.042069724E0,6.281948535E0,-4.936003107E0,8.056855055E0
8.003235834E-1,-4.855931336E-1,6.419725893E0,-6.234783139E0,8.962209662E0
8.103935834E-1,-5.262494087E-6,5.956022395E0,-6.941457742E0,9.146476828E0
8.204635833E-1,7.195355541E-1,5.312075552E0,-7.769748584E0,9.439537655E0
8.305325833E-1,2.503474272E0,4.744449492E0,-8.637717462E0,1.016795689E1
8.406025834E-1,5.362896042E0,4.385925710E0,-1.016816535E1,1.230400686E1
8.506725833E-1,8.347086285E0,3.616464289E0,-1.212203936E1,1.515574154E1
8.607425833E-1,1.133347800E1,2.312979003E0,-1.371776439E1,1.794365223E1
8.708125834E-1,1.429638380E1,1.414680617E0,-1.474120254E1,2.058375484E1
8.808825834E-1,1.710219830E1,1.062079188E0,-1.527085503E1,2.295239012E1
8.909525833E-1,2.009779002E1,9.610562584E-1,-1.497372409E1,2.508101286E1
9.010225834E-1,2.327416597E1,1.228551756E0,-1.414709152E1,2.726419519E1
9.110925834E-1,2.653754146E1,1.524088162E0,-1.298728577E1,2.958434625E1
9.211625833E-1,2.995086061E1,1.192706863E0,-1.193593301E1,3.226364979E1
9.312325834E-1,3.270460215E1,3.859252962E-1,-1.136384727E1,3.462480274E1
9.413025834E-1,3.441404032E1,-8.005469728E-1,-1.057377968E1,3.601071873E1
9.513725833E-1,3.469943122E1,-2.812240295E0,-9.952763278E0,3.620796486E1
9.614425834E-1,3.436988215E1,-5.545332679E0,-8.522651274E0,3.584236457E1
9.715125834E-1,3.307042969E1,-7.652906013E0,-5.474442791E0,3.438298728E1
9.815825833E-1,3.167933498E1,-8.744462476E0,-2.757347512E0,3.297952174E1
9.916525834E-1,3.045493504E1,-9.235151458E0,-1.525149870E0,3.186090352E1
1.001722583E0,2.903270275E1,-1.009268247E1,-1.116889379E0,3.075723509E1
1.011792000E0,2.696129620E1,-1.124424365E1,-8.992783785E-2,2.921219942E1
1.021862000E0,2.468805779E1,-1.291038436E1,1.853382590E0,2.792155527E1
1.031932000E0,2.239856413E1,-1.454471739E1,4.060672585E0,2.701358068E1
1.042002000E0,1.999668933E1,-1.572235130E1,6.025632913E0,2.614131149E1
1.052072000E0,1.741199314E1,-1.657500164E1,6.520749407E0,2.490839933E1
1.062142000E0,1.538207609E1,-1.721894614E1,6.111196389E0,2.388403426E1
1.072212000E0,1.390544247E1,-1.802328562E1,5.388837215E0,2.339315544E1
1.082282000E0,1.275480047E1,-1.879945555E1,4.060215625E0,2.307790751E1
1.092352000E0,1.272989134E1,-1.965363085E1,2.795585671E0,2.358242223E1
1.102422000E0,1.304085562E1,-2.054316776E1,1.527318456E0,2.438069644E1
1.112492000E0,1.282925892E1,-2.165661796E1,2.973472881E-1,2.517314841E1
1.122562000E0,1.241181216E1,-2.255426379E1,4.126318690E-1,2.574719716E1
1.132632000E0,1.236012628E1,-2.281535367E1,1.326437362E0,2.598215774E1
1.142702000E0,1.272878972E1,-2.270573241E1,2.029969964E0,2.610925410E1
1.152772000E0,1.345032795E1,-2.221509254E1,2.442857357E0,2.608427132E1
1.162842000E0,1.485390412E1,-2.150744379E1,2.328540490E0,2.624177408E1
1.172912000E0,1.683318194E1,-2.033360823E1,1.930438075E0,2.646768273E1
1.182982000E0,1.927995050E1,-1.887766791E1,1.124392673E0,2.700642693E1
1.193052000E0,2.224644297E1,-1.739965083E1,8.340205282E-2,2.824285803E1
1.203122000E0,2.552157839E1,-1.549288784E1,-1.197612677E0,2.988000691E1
1.213192000E0,2.865764596E1,-1.308654810E1,-2.578884935E0,3.160963557E1
1.223262000E0,3.150882082E1,-1.094094389E1,-5.161470573E0,3.375130844E1
1.233332000E0,3.371008935E1,-1.000003685E1,-7.882873496E0,3.603485196E1
1.243402000E0,3.662906852E1,-9.358659271E0,-8.816170975E0,3.882007258E1
1.253472000E0,3.681218461E1,-8.333604360E0,-7.683244876E0,3.851776407E1
1.263542000E0,3.419723492E1,-9.643506966E0,-6.556636108E0,3.613083973E1
1.273612000E0,3.192871171E1,-1.155152068E1,-5.655665545E0,3.442189441E1
1.283682000E0,2.935142512E1,-1.106415642E1,-4.265300574E0,3.165619217E1
1.293752000E0,2.713329321E1,-1.121203835E1,-4.164574683E0,2.965247185E1
1.303822000E0,2.436525407E1,-1.091498343E1,-3.789026148E0,2.696588934E1
1.313892000E0,2.128276336E1,-1.121464153E1,-3.892160507E0,2.436951198E1
1.323962000E0,1.785598859E1,-1.210329084E1,-3.417924421E0,2.184051705E1
1.334032000E0,1.413497141E1,-1.425228410E1,-3.283615047E0,2.033979220E1
1.344102000E0,9.853704429E0,-1.860201145E1,-3.886181145E0,2.140637113E1
1.354172000E0,4.152273896E0,-2.510139045E1,-4.512526699E0,2.583958356E1
1.364242000E0,-3.933838291E0,-3.202348806E1,-4.292786581E0,3.254853127E1
1.374312000E0,-1.243353807E1,-3.781704031E1,-3.642411894E-1,3.981022580E1
1.384382000E0,-1.791454144E1,-4.356302896E1,5.246417753E0,4.739402058E1
1.394452000E0,-2.078566817E1,-4.875763922E1,1.208709522E1,5.436404376E1
1.404522000E0,-2.348608543E1,-5.204787682E1,1.773210948E1,5.979134885E1
1.414592000E0,-2.558366178E1,-5.206592834E1,2.171299915E1,6.194222289E1
1.424662000E0,-2.568800184E1,-5.061556159E1,2.193612656E1,6.085229791E1
1.434732000E0,-2.401167995E1,-4.837012319E1,2.032103906E1,5.769899670E1
1.444802000E0,-2.130817770E1,-4.528347628E1,1.807740043E1,5.321112728E1
1.454872000E0,-1.790840771E1,-4.186903446E1,1.549196164E1,4.810122648E1
1.464942000E0,-1.398996397E1,-3.862136692E1,1.229731783E1,4.287835236E1
1.475012000E0,-8.899041808E0,-3.566868674E1,8.974956794E0,3.784174954E1
1.485082000E0,-2.013206874E0,-3.347064119E1,4.601676857E0,3.384541703E1
1.495152000E0,5.817018877E0,-3.258633870E1,1.964679077E-2,3.310147375E1
1.505222000E0,1.335876172E1,-3.333810820E1,-1.872633816E0,3.596376969E1
1.515292000E0,2.120257698E1,-3.581137517E1,-2.848479876E-1,4.161832530E1
1.525362000E0,2.806183574E1,-3.880599393E1,2.675480061E0,4.796384037E1
1.535432000E0,3.345764868E1,-4.137675035E1,7.901540147E0,5.379483304E1
1.545502000E0,3.632321938E1,-4.243466136E1,1.312833698E1,5.737970009E1
1.555572000E0,3.500545110E1,-4.096735170E1,1.656715467E1,5.637531487E1
1.565642000E0,3.217760196E1,-3.953662223E1,1.802875978E1,5.407012802E1
1.575712000E0,2.822425268E1,-3.653889042E1,1.720445674E1,4.927161743E1
1.585782000E0,2.449545519E1,-3.376354928E1,1.422808130E1,4.407315376E1
1.595852000E0,2.171985209E1,-3.146652206E1,1.122371056E1,3.984803212E1
1.605922000E0,1.948908318E1,-2.942763071E1,8.552005466E0,3.631730455E1
1.615992000E0,1.749452308E1,-2.848415440E1,6.482902719E0,3.405045399E1
1.626062000E0,1.487522423E1,-2.796574026E1,5.989962559E0,3.223716141E1
1.636132000E0,1.171773363E1,-2.816528935E1,6.255584024E0,3.114034581E1
1.646202000E0,8.526809814E0,-2.900395316E1,6.544123067E0,3.093155882E1
1.656272000E0,5.976782935E0,-2.993754066E1,6.640229073E0,3.124213368E1
1.666342000E0,4.511440287E0,-3.049305421E1,7.163433251E0,3.164639355E1
1.676412000E0,3.841394396E0,-3.084251656E1,7.849447888E0,3.205668372E1
1.686482000E0,4.517017361E0,-3.058993322E1,8.581771887E0,3.209040774E1
1.696552000E0,7.409814454E0,-2.958315495E1,7.850030270E0,3.149113180E1
1.706622000E0,1.138738466E1,-2.845903008E1,6.292071819E0,3.129183744E1
1.716692000E0,1.467438524E1,-2.603638830E1,4.549576412E0,3.023127095E1
1.726762000E0,1.588133709E1,-2.379809286E1,2.251982603E0,2.869908565E1
1.736832000E0,1.522605717E1,-2.158167536E1,9.717218721E-1,2.643001649E1
1.746902000E0,1.466591146E1,-1.984322097E1,6.150458103E-1,2.468239572E1
1.756972000E0,1.703568037E1,-1.721268962E1,3.227019481E-1,2.421972804E1
1.767042000E0,2.327771873E1,-1.477099060E1,-1.035175929E0,2.758814858E1
1.777112000E0,3.245134521E1,-1.218459053E1,-3.649693431E0,3.485504718E1
1.787182000E0,4.131883953E1,-1.023975164E1,-5.296554118E0,4.289699872E1
1.797252000E0,4.845608193E1,-1.160189093E1,-4.459208863E0,5.002479678E1
1.807322000E0,5.305384583E1,-1.341413953E1,3.652738076E-1,5.472461167E1
1.817392000E0,5.606214005E1,-1.373154978E1,7.592137070E0,5.821648866E1
1.827462000E0,6.045800194E1,-1.278359684E1,1.561129162E1,6.373619672E1
1.837532000E0,6.743376296E1,-1.191055843E1,2.203085847E1,7.193422352E1
1.847602000E0,7.189729817E1,-1.025702899E1,2.764785287E1,7.770992148E1
1.857672000E0,7.187311877E1,-6.889374838E0,2.985921837E1,7.813310188E1
1.867742000E0,7.177090008E1,-7.346608976E0,3.416841049E1,7.982803416E1
1.877812000E0,7.148875088E1,-7.494627147E0,3.241635079E1,7.885195455E1
1.887882000E0,6.762953241E1,-5.345095364E0,2.408148168E1,7.198778687E1
1.897952000E0,5.570612414E1,-4.777589756E0,1.877297234E1,5.897814953E1
1.908022000E0,4.254441593E1,-5.383194652E0,1.504167341E1,4.544511031E1
1.918092000E0,3.266765944E1,-6.479869183E0,1.080671404E1,3.501356518E1
1.928162000E0,2.607969512E1,-8.343417742E0,6.371095769E0,2.811323493E1
1.938232000E0,2.206740123E1,-1.073803148E1,2.907599319E0,2.471294500E1
1.948302000E0,2.012317396E1,-1.414579461E1,9.736122038E-1,2.461693636E1
1.958372000E0,1.861695810E1,-1.848734638E1,2.107088014E-2,2.623687385E1
1.968442000E0,1.662583031E1,-2.242499589E1,-4.233106390E-2,2.791595361E1
1.978512000E0,1.460726154E1,-2.626712645E1,-6.903446455E-1,3.006344287E1
1.988582000E0,1.305701499E1,-2.965460091E1,-1.195100859E0,3.242389954E1
1.998652000E0,1.174683405E1,-3.203408322E1,-7.164330214E-1,3.412746510E1
2.008722708E0,1.077887194E1,-3.364652544E1,1.952987570E-1,3.533144345E1
2.018792708E0,1.086229300E1,-3.529365802E1,1.167232298E0,3.694582706E1
2.028863708E0,1.189589127E1,-3.514485808E1,2.283596159E0,3.717375539E1
2.038933708E0,1.399444294E1,-3.455748422E1,2.956374453E0,3.740059222E1
2.049003708E0,1.650145302E1,-3.339796732E1,3.768857932E0,3.744230846E1
2.059073708E0,1.946609895E1,-3.201451610E1,3.864258764E0,3.766683879E1
2.069143708E0,2.259328109E1,-3.012518482E1,3.581343573E0,3.782603777E1
2.079213708E0,2.599305809E1,-2.818317482E1,3.219310585E0,3.847459386E1
2.089283708E0,2.966037328E1,-2.650219621E1,3.133027024E0,3.989887223E1
2.099353708E0,3.268591211E1,-2.528492052E1,2.641507738E0,4.140861769E1
2.109423708E0,3.495286592E1,-2.430862963E1,3.094748519E0,4.268711491E1
2.119493708E0,3.592605077E1,-2.409548225E1,3.678417293E0,4.341433107E1
2.129563708E0,3.591360322E1,-2.390083780E1,4.366417644E0,4.336014929E1
2.139633708E0,3.499465013E1,-2.311604088E1,3.838176089E0,4.211541854E1
2.149703708E0,3.317663383E1,-2.241781551E1,3.343377684E0,4.017991612E1
2.159773708E0,3.062805239E1,-2.134755285E1,2.763821841E0,3.743573583E1
2.169843708E0,2.761020616E1,-1.991779869E1,2.031168351E0,3.410524642E1
2.179913708E0,2.467949981E1,-1.867776213E1,1.409247969E0,3.098261591E1
2.189983708E0,2.242053095E1,-1.760313628E1,1.258010906E0,2.853301958E1
2.200053708E0,2.049295655E1,-1.759364157E1,4.861866260E-1,2.701358675E1
2.210123708E0,1.750345061E1,-1.885411415E1,6.726531637E-1,2.573520674E1
2.220193708E0,1.305620339E1,-2.190237643E1,1.324183261E0,2.553295912E1
2.230263708E0,6.717563177E0,-2.688435853E1,2.081943233E0,2.778900639E1
2.240333708E0,-1.885170978E0,-3.302519329E1,3.038674598E0,3.321823000E1
2.250403708E0,-1.193669080E1,-3.844106452E1,4.752073091E0,4.053125001E1
2.260473708E0,-1.765961570E1,-4.425333721E1,7.045179162E0,4.816486718E1
2.270543708E0,-2.021751060E1,-4.983059393E1,1.014008234E1,5.472346020E1
2.280613708E0,-2.444211689E1,-5.172057308E1,1.656713129E1,5.955589472E1
2.290683708E0,-2.969572087E1,-5.194293099E1,2.260261559E1,6.395922255E1
2.300753708E0,-3.313284521E1,-5.087550540E1,2.583177318E1,6.598017117E1
2.310823708E0,-3.184538655E1,-4.872233607E1,2.478154074E1,6.326230661E1
2.320893708E0,-2.687240916E1,-4.530295452E1,2.069593680E1,5.659333762E1
2.330963708E0,-2.000739441E1,-4.155886539E1,1.512923196E1,4.854203110E1
2.341033708E0,-1.225821750E1,-3.814521178E1,9.314585298E0,4.113493135E1
2.351103708E0,-3.342694144E0,-3.517396318E1,4.328944008E0,3.559664375E1
2.361173708E0,6.302543598E0,-3.249657459E1,-8.149556816E-4,3.310210592E1
2.371243708E0,1.481069436E1,-3.157176727E1,-1.010799984E0,3.488774674E1
2.381313708E0,2.298108013E1,-3.252871089E1,3.150242397E0,3.995211012E1
2.391383708E0,3.143972544E1,-3.408980520E1,9.286552577E0,4.729493856E1
2.401453708E0,3.906009989E1,-3.752125072E1,1.317062522E1,5.574047925E1
2.411523708E0,4.035708482E1,-3.310787993E1,1.399731275E1,5.404397074E1
2.421593708E0,3.954761500E1,-2.993289563E1,1.217196288E1,5.107003792E1
2.431663708E0,3.746507067E1,-2.661389674E1,9.880305752E0,4.700586625E1
2.441733708E0,3.413907851E1,-2.285627482E1,8.087459970E0,4.187234158E1
2.451803708E0,3.047846892E1,-2.027482266E1,6.643075497E0,3.720397766E1
2.461873708E0,2.687425454E1,-1.896606027E1,6.114924574E0,3.345637909E1
2.471943708E0,2.322270579E1,-1.815467840E1,6.379195333E0,3.015925306E1
2.482013708E0,1.966091414E1,-1.810192014E1,6.833371961E0,2.758488771E1
2.492083708E0,1.585186712E1,-1.871820381E1,7.627227380E0,2.568710655E1
2.502153708E0,1.235565784E1,-1.938253171E1,8.543049286E0,2.452200047E1
2.512223708E0,9.772650910E0,-2.021314623E1,9.314646109E0,2.430717216E1
2.522294708E0,8.179094025E0,-2.143211762E1,1.007948531E1,2.505652148E1
2.532364708E0,7.361542765E0,-2.237782991E1,1.084725396E1,2.593496678E1
2.542434708E0,7.354259473E0,-2.268998936E1,1.157848687E1,2.651380976E1
2.552504708E0,7.533485988E0,-2.240835003E1,1.112769461E1,2.612878010E1
2.562574708E0,7.642806117E0,-2.145400959E1,1.002737609E1,2.488443860E1
2.572644708E0,7.792403621E0,-2.037010889E1,8.814168888E0,2.352344498E1
2.582714708E0,7.837118449E0,-1.905342118E1,7.089705709E0,2.178800613E1
2.592784708E0,7.571160184E0,-1.711023237E1,5.678973716E0,1.955334398E1
2.602854708E0,7.984296375E0,-1.656536777E1,3.574502331E0,1.873332498E1
2.612924708E0,7.771401007E0,-1.580892517E1,1.876553351E0,1.771548027E1
2.622994708E0,7.127889782E0,-1.588738662E1,8.396227455E-1,1.743332535E1
2.633064708E0,7.559117843E0,-1.686608773E1,6.969144309E-1,1.849569862E1
2.643134708E0,9.652443266E0,-1.783055087E1,2.821472756E0,2.047092850E1
2.653204708E0,1.490562742E1,-1.767343969E1,5.732577481E0,2.381996313E1
2.663274708E0,2.393887043E1,-1.667268054E1,6.415878425E0,2.986990609E1
2.673344708E0,3.448105409E1,-1.580983968E1,4.402372173E0,3.818736705E1
2.683414708E0,4.342610121E1,-1.575326436E1,3.157432133E0,4.630292628E1
2.693484708E0,4.823427599E1,-1.662160629E1,5.812392560E0,5.134790243E1
2.703554708E0,5.008450810E1,-1.734539452E1,1.152658698E1,5.424189221E1
2.713624708E0,5.259333316E1,-1.877435813E1,1.956848252E1,5.917314192E1
2.723694708E0,5.586343763E1,-1.824033309E1,2.772260134E1,6.497673461E1
2.733764708E0,6.038244656E1,-1.484484327E1,3.291386932E1,7.035433190E1
2.743834708E0,6.555310661E1,-9.752798443E0,3.267722081E1,7.389267639E1
2.753904708E0,6.944205700E1,-4.411651120E0,2.863584520E1,7.524409330E1
2.763974708E0,7.018829737E1,3.634570777E-2,2.360240526E1,7.405046889E1
2.774044708E0,6.679774961E1,2.989824620E0,2.035153813E1,6.989322935E1
2.784114708E0,6.022132536E1,3.953296655E0,1.712059364E1,6.273237847E1
2.794184708E0,5.127647471E1,3.376289907E0,1.322518208E1,5.306205455E1
2.804254708E0,4.242745759E1,3.281071508E-1,1.056219167E1,4.372364011E1
2.814324708E0,3.481985814E1,-3.781728531E0,8.530922161E0,3.604858700E1
2.824394708E0,2.883853776E1,-8.275632141E0,6.648652571E0,3.073030961E1
2.834464708E0,2.442873846E1,-1.251180539E1,4.752111683E0,2.785482189E1
2.844535708E0,2.121264121E1,-1.669453393E1,2.830756088E0,2.714215891E1
2.854605708E0,1.825648310E1,-2.099215908E1,6.715410233E-1,2.782841867E1
2.864675708E0,1.579805871E1,-2.572325353E1,-1.304114447E0,3.021531310E1
2.874745708E0,1.379550078E1,-2.865532345E1,-8.202121823E-1,3.181377299E1
2.884815708E0,1.188547387E1,-3.097620964E1,-9.369093043E-1,3.319138219E1
2.894885708E0,1.068983522E1,-3.250359592E1,-3.602359197E-1,3.421821291E1
2.904955708E0,1.041666500E1,-3.277579083E1,1.027221304E0,3.440660631E1
2.915025708E0,1.157608132E1,-3.287955786E1,2.222159464E0,3.492862689E1
2.925095708E0,1.397005069E1,-3.269544541E1,3.145460544E0,3.569381443E1
2.935165708E0,1.680392949E1,-3.274726577E1,3.665313098E0,3.698905219E1
2.945235708E0,1.993936556E1,-3.358945895E1,3.855431807E0,3.925168030E1
2.955305708E0,2.320747262E1,-3.401815342E1,4.273757987E0,4.140152841E1
2.965375708E0,2.607541730E1,-3.380437454E1,4.763559362E0,4.295759098E1
2.975445708E0,2.927974527E1,-3.263817778E1,6.597174854E0,4.434046513E1
2.985515708E0,3.227447161E1,-3.121385452E1,8.357054619E0,4.567041267E1
2.995585708E0,3.475992418E1,-3.069550119E1,8.888174758E0,4.721721903E1
3.005655708E0,3.638548755E1,-3.007093202E1,9.468023254E0,4.814361973E1
3.015725958E0,3.601705683E1,-2.961152096E1,9.048462142E0,4.749679172E1
3.025795958E0,3.452353762E1,-2.911159572E1,7.325750788E0,4.574960415E1
3.035865958E0,3.214432896E1,-2.835229734E1,6.155621195E0,4.330129699E1
3.045935958E0,2.958657206E1,-2.721260952E1,5.459114900E0,4.056714556E1
3.056005958E0,2.703668786E1,-2.543349125E1,4.755874951E0,3.742276465E1
3.066075958E0,2.473431161E1,-2.392455176E1,4.245508919E0,3.467267936E1
3.076145958E0,2.264966228E1,-2.242251901E1,4.260615785E0,3.215477270E1
3.086215958E0,2.028814964E1,-2.213183521E1,3.325606241E0,3.020739648E1
3.096285958E0,1.738834466E1,-2.335398982E1,2.446464504E0,2.921897601E1
3.106355958E0,1.192437189E1,-2.532266546E1,2.531540322E0,2.810403401E1
3.116425958E0,4.399107088E0,-2.748375661E1,4.099288766E0,2.813384419E1
3.126495958E0,-3.477680626E0,-3.076337333E1,4.965922140E0,3.135505994E1
3.136565958E0,-1.089156883E1,-3.365533369E1,6.089443578E0,3.589413713E1
3.146635958E0,-1.661823244E1,-3.585159934E1,8.850297664E0,4.049482181E1
3.156705958E0,-1.854515663E1,-3.877508087E1,1.044186883E1,4.423191558E1
3.166775958E0,-1.957924725E1,-4.214121065E1,1.086663046E1,4.772119252E1
3.176845958E0,-2.189571294E1,-4.362636133E1,1.152428552E1,5.015466882E1
3.186915958E0,-2.525346250E1,-4.308823505E1,1.238194692E1,5.145528134E1
3.196986958E0,-2.747818538E1,-4.135372168E1,1.297192747E1,5.131716936E1
3.207055958E0,-2.682248330E1,-3.955817741E1,1.327455830E1,4.960351710E1
3.217126958E0,-2.397763513E1,-3.727164946E1,1.306045315E1,4.620257867E1
3.227196958E0,-1.954914227E1,-3.430370570E1,1.180274162E1,4.120943943E1
3.237266958E0,-1.373082941E1,-3.114965677E1,9.111132599E0,3.523988550E1
3.247336958E0,-6.701471640E0,-2.808563858E1,5.693844355E0,2.943013218E1
3.257406958E0,1.493716262E0,-2.547710446E1,2.243486014E0,2.561927535E1
3.267476958E0,9.400579714E0,-2.399234438E1,-8.766116470E-2,2.576841424E1
3.277546958E0,1.682683537E1,-2.415619506E1,2.887662068E-1,2.944057632E1
3.287616958E0,2.391496233E1,-2.501587142E1,3.302021497E0,3.476524977E1
3.297686958E0,2.863570955E1,-2.568438124E1,8.104872978E0,3.931132492E1
3.307756958E0,3.022758828E1,-2.598110405E1,1.265085569E1,4.181828560E1
3.317826958E0,2.982974841E1,-2.600759427E1,1.513772329E1,4.237168295E1
3.327896958E0,2.794057618E1,-2.523189095E1,1.573473570E1,4.080325999E1
3.337966958E0,2.546018028E1,-2.408446142E1,1.551048796E1,3.832567414E1
3.348036958E0,2.288380351E1,-2.303696782E1,1.507038441E1,3.579786077E1
3.358106958E0,2.048590949E1,-2.230387666E1,1.450946101E1,3.358064711E1
3.368176958E0,1.798573948E1,-2.170160409E1,1.366427406E1,3.132345496E1
3.378246958E0,1.546021360E1,-2.129200196E1,1.305838674E1,2.937497262E1
3.388316958E0,1.312761427E1,-2.146076196E1,1.245175917E1,2.807035566E1
3.398386958E0,1.064218041E1,-2.211024495E1,1.151144152E1,2.710409972E1
3.408456958E0,8.139580296E0,-2.361601524E1,1.102539874E1,2.730436523E1
3.418526958E0,6.142702357E0,-2.586230500E1,1.217458477E1,2.923717029E1
3.428596958E0,4.905861880E0,-2.789696531E1,1.402940344E1,3.160905432E1
3.438666958E0,4.542093145E0,-2.925837720E1,1.473377073E1,3.307215213E1
3.448736958E0,5.102668049E0,-2.998930489E1,1.419318278E1,3.356846833E1
3.458806958E0,5.874974724E0,-2.958309180E1,1.251083242E1,3.265265037E1
3.468876958E0,6.578957854E0,-2.783942636E1,9.889634399E0,3.026749437E1
3.478946958E0,7.083087246E0,-2.539819044E1,6.907870166E0,2.725723524E1
3.489016958E0,7.701519179E0,-2.366231116E1,4.485761654E0,2.528518192E1
3.499086958E0,8.587720259E0,-2.201549900E1,2.546025045E0,2.376790649E1
3.509156958E0,9.950936608E0,-2.080352323E1,1.058443682E0,2.308523383E1
3.519226958E0,1.136512781E1,-1.962600626E1,3.744451654E-1,2.268229400E1
3.529296958E0,1.270503131E1,-1.801872830E1,4.299159461E-1,2.205169422E1
3.539366958E0,1.440913917E1,-1.630071577E1,-1.376253301E-1,2.175673612E1
3.549436958E0,1.793250292E1,-1.365104064E1,-9.169504184E-1,2.255585001E1
3.559506958E0,2.325866149E1,-1.005010071E1,-1.369108003E0,2.537408748E1
3.569577958E0,3.091764861E1,-6.968260210E0,-2.581032325E0,3.179810330E1
3.579647958E0,3.953843721E1,-6.155595467E0,-2.858732384E0,4.011672623E1
3.589717958E0,4.806154457E1,-9.637852709E0,-5.328614402E-1,4.902126286E1
3.599787958E0,5.406574626E1,-1.191389368E1,5.961995326E0,5.568295224E1
3.609857958E0,5.755747424E1,-1.172406032E1,1.590362434E1,6.085426607E1
3.619927958E0,6.203249339E1,-1.222499830E1,2.582681942E1,6.829718457E1
3.629997958E0,6.733162847E1,-1.131438334E1,3.184629872E1,7.533757499E1
3.640067958E0,7.063129646E1,-7.781109724E0,3.531581897E1,7.935069488E1
3.650137958E0,7.058809256E1,-2.431588603E0,3.247112984E1,7.773651463E1
3.660207958E0,7.043131701E1,2.613868534E0,2.464447733E1,7.466426848E1
3.670277958E0,7.000208928E1,6.527257358E0,1.630496202E1,7.217166604E1
3.680347958E0,6.519180014E1,8.457608017E0,9.480535126E0,6.641823910E1
3.690417958E0,5.601003902E1,7.568402052E0,5.164492414E0,5.675453429E1
3.700487958E0,4.609927045E1,5.141153253E0,4.236461522E0,4.657812576E1
3.710557958E0,3.723441906E1,1.384836721E0,4.269367313E0,3.750396290E1
3.720627958E0,3.027135820E1,-3.550803566E0,3.799115519E0,3.071476212E1
3.730697958E0,2.528038074E1,-8.059193945E0,2.707311133E0,2.667166645E1
3.740767958E0,2.171191858E1,-1.191797270E1,9.801757765E-1,2.478721901E1
3.750837958E0,1.892310194E1,-1.587800885E1,-6.248615313E-1,2.471002639E1
3.760907958E0,1.690998161E1,-1.961892996E1,-1.239547738E0,2.593041398E1
3.770977958E0,1.493366365E1,-2.277719707E1,-1.707051779E0,2.728972411E1
3.781047958E0,1.306867901E1,-2.566895863E1,-2.716046873E0,2.893203620E1
3.791117958E0,1.139514391E1,-2.760239895E1,-2.050016851E0,2.993232871E1
3.801187958E0,1.038310432E1,-2.893866549E1,-7.673869012E-1,3.075457849E1
3.811257958E0,1.014068811E1,-2.957388361E1,3.955688167E-1,3.126666950E1
3.821327958E0,1.078654349E1,-3.015724628E1,1.403336434E0,3.205898277E1
3.831397958E0,1.224200551E1,-3.058590098E1,2.504947186E0,3.303995760E1
3.841467958E0,1.358667215E1,-3.059452679E1,3.434465024E0,3.365142315E1
3.851537958E0,1.531255270E1,-3.041891853E1,3.608234918E0,3.424622949E1
3.861607958E0,1.722735327E1,-2.981409892E1,3.141896081E0,3.457649065E1
3.871678958E0,1.941027675E1,-2.916297871E1,3.783240621E0,3.523565070E1
3.881748958E0,2.156633929E1,-2.781554166E1,4.927820513E0,3.554004450E1
3.891818958E0,2.386547384E1,-2.646452845E1,6.220684333E0,3.617497783E1
3.901888958E0,2.645162247E1,-2.506890566E1,7.436348534E0,3.719459157E1
3.911958958E0,2.890678647E1,-2.372342158E1,7.460978175E0,3.813225971E1
3.922028958E0,3.094867627E1,-2.254269566E1,7.397033025E0,3.899627916E1
3.932098958E0,3.237789248E1,-2.189415057E1,6.507334725E0,3.962356819E1
3.942168958E0,3.344351713E1,-2.140333061E1,5.629212742E0,4.010311004E1
3.952238958E0,3.343351839E1,-2.081167658E1,4.981176356E0,3.969556842E1
3.962308958E0,3.224016483E1,-2.002422503E1,4.339281886E0,3.819983224E1
3.972378958E0,3.022889104E1,-1.894644052E1,3.652863207E0,3.586219279E1
3.982448958E0,2.775653156E1,-1.760595931E1,3.365409700E0,3.304119898E1
3.992518958E0,2.529582675E1,-1.637566538E1,2.754699308E0,3.025937269E1
4.002588958E0,2.231745857E1,-1.584343778E1,1.466128514E0,2.740863022E1
4.012658208E0,1.830148094E1,-1.644258676E1,3.494342486E-1,2.460538494E1
4.022728208E0,1.355432302E1,-1.794507209E1,1.170600879E-1,2.248908597E1
4.032798208E0,8.343771499E0,-2.013009706E1,3.714209489E-1,2.179397357E1
4.042868208E0,2.062962586E0,-2.355163974E1,1.545419097E0,2.369227446E1
4.052938208E0,-4.789337397E0,-2.766516764E1,3.555364394E0,2.830088107E1
4.063008208E0,-1.265630880E1,-3.318883814E1,7.316107560E0,3.626577670E1
4.073078208E0,-2.016660941E1,-3.915885702E1,1.322947861E1,4.599051340E1
4.083148208E0,-2.524262176E1,-4.378857244E1,1.854775630E1,5.383909633E1
4.093218208E0,-2.877363835E1,-4.474198668E1,2.158089885E1,5.740647029E1
4.103288208E0,-3.113432303E1,-4.373802444E1,2.177022234E1,5.793361229E1
4.113358208E0,-3.199936947E1,-4.230666347E1,2.060506639E1,5.690678502E1
4.123428208E0,-3.124302745E1,-4.053670193E1,1.911025611E1,5.463106128E1
4.133498208E0,-2.857906640E1,-3.853682086E1,1.778279315E1,5.116715089E1
4.143568208E0,-2.410750880E1,-3.624668869E1,1.639440687E1,4.651635194E1
4.153638208E0,-1.743411666E1,-3.388546372E1,1.391260180E1,4.056764184E1
4.163708208E0,-9.020115425E0,-3.137065579E1,1.029090191E1,3.422547573E1
4.173778208E0,3.062666309E-1,-2.881217384E1,6.031460248E0,2.943830283E1
4.183848208E0,1.064768498E1,-2.708156641E1,1.590683855E0,2.914300447E1
4.193918208E0,1.913850518E1,-2.598642034E1,-4.726172850E-1,3.227692348E1
4.203988208E0,2.671870925E1,-2.612965373E1,2.230027185E0,3.743823246E1
4.214058208E0,3.185589049E1,-2.748569788E1,7.201564699E0,4.268634303E1
4.224128208E0,3.590572351E1,-3.060677554E1,1.357685000E1,4.909507659E1
4.234198208E0,3.579704716E1,-2.713787743E1,1.845708938E1,4.856497838E1
4.244268208E0,3.506755555E1,-2.595699949E1,1.959742390E1,4.782842563E1
4.254338208E0,3.258236961E1,-2.440674825E1,1.827889197E1,4.462530741E1
4.264409208E0,2.916925628E1,-2.152608471E1,1.644309781E1,3.980695041E1
4.274479208E0,2.698093816E1,-1.933959911E1,1.470784886E1,3.630856560E1
4.284549208E0,2.544220360E1,-1.754374728E1,1.206840986E1,3.317733126E1
4.294619208E0,2.374032939E1,-1.651288900E1,1.037029307E1,3.072168161E1
4.304689208E0,2.165379960E1,-1.639839701E1,9.910636429E0,2.891392703E1
4.314759208E0,1.938114826E1,-1.689983084E1,1.008188968E1,2.762024058E1
4.324829208E0,1.641005519E1,-1.752672019E1,1.058752648E1,2.624064689E1
4.334899208E0,1.363221728E1,-1.807553751E1,1.115143547E1,2.523721295E1
4.344969208E0,1.163647604E1,-1.864797992E1,1.126291615E1,2.469834023E1
4.355039208E0,1.011379092E1,-1.858828920E1,1.044935093E1,2.360089399E1
4.365109208E0,8.895030034E0,-1.783643083E1,8.728476774E0,2.175881731E1
4.375179208E0,7.401468723E0,-1.689957473E1,6.734177456E0,1.963992137E1
4.385249208E0,5.880374628E0,-1.601441621E1,4.831700182E0,1.773092380E1
4.395319208E0,4.609624393E0,-1.518712290E1,3.146649867E0,1.618019606E1
4.405389208E0,3.575105764E0,-1.425433179E1,1.726820630E0,1.479693433E1
4.415459208E0,2.621839458E0,-1.336849616E1,3.744425341E-2,1.362322039E1
4.425529208E0,1.727752823E0,-1.262006776E1,-1.604194139E0,1.283840640E1
4.435599208E0,1.519505407E0,-1.243214995E1,-2.722598094E0,1.281716776E1
4.445669208E0,2.314637273E0,-1.225549036E1,-3.717959674E0,1.301452319E1
4.455739208E0,4.142148857E0,-1.233470142E1,-4.923996434E0,1.391215286E1
4.465809208E0,8.040343106E0,-1.387462530E1,-4.447591031E0,1.664131637E1
4.475879208E0,1.340768303E1,-1.414328381E1,-3.323926921E0,1.976984905E1
4.485949208E0,1.900285679E1,-1.340311753E1,-1.584370470E0,2.330798909E1
4.496019208E0,2.512989680E1,-1.370385737E1,7.789694314E-1,2.863414419E1
4.506089208E0,3.209673029E1,-1.524710247E1,2.820916686E0,3.564592263E1
4.516159208E0,3.889049321E1,-1.752489702E1,6.839875234E0,4.320157834E1
4.526229208E0,4.560867970E1,-1.903644086E1,1.270280820E1,5.102841445E1
4.536299208E0,5.131591301E1,-1.743255662E1,1.914238305E1,5.747736761E1
4.546369208E0,5.631015555E1,-1.364086882E1,2.535923629E1,6.324553570E1
4.556439208E0,6.131281809E1,-8.078372812E0,2.869819056E1,6.817703360E1
4.566509208E0,6.496119063E1,-1.550113826E0,2.862964715E1,7.100715343E1
4.576579208E0,6.655502000E1,4.271841854E0,2.567721489E1,7.146424760E1
4.586649208E0,6.600496541E1,8.469184334E0,2.113253670E1,6.982096138E1
4.596719208E0,6.381803658E1,1.017444526E1,1.618266633E1,6.661936520E1
4.606789208E0,6.084792234E1,9.583951321E0,1.105179190E1,6.258165770E1
4.616859208E0,5.652334971E1,7.411473309E0,7.101340499E0,5.744778530E1
4.626929208E0,5.053271356E1,4.368603333E0,5.496056439E0,5.101809944E1
4.636999208E0,4.391128445E1,1.240412833E0,5.038971405E0,4.421686057E1
4.647070208E0,3.790060404E1,-1.835307969E0,4.612474326E0,3.822432552E1
4.657140208E0,3.262591266E1,-4.920053657E0,3.610139941E0,3.319171908E1
4.667210208E0,2.787297535E1,-8.161431341E0,2.547554677E0,2.915478951E1
4.677280208E0,2.387590527E1,-1.165161565E1,2.241433641E0,2.666163957E1
4.687350208E0,2.067393022E1,-1.501967385E1,2.226140833E0,2.565068608E1
4.697420208E0,1.798191306E1,-1.807098954E1,1.848924673E0,2.556028918E1
4.707490208E0,1.563268541E1,-2.076215067E1,8.096931875E-1,2.600198755E1
4.717560208E0,1.388904571E1,-2.294100565E1,7.401990294E-3,2.681781844E1
4.727630208E0,1.277329873E1,-2.434908301E1,-1.789855917E-1,2.749667325E1
4.737700208E0,1.195920960E1,-2.567885913E1,-6.605728161E-1,2.833483469E1
4.747770208E0,1.123870516E1,-2.635235780E1,-4.244996337E-1,2.865197123E1
4.757840208E0,1.096322997E1,-2.673937565E1,1.265220523E-2,2.889959830E1
4.767910208E0,1.148545650E1,-2.731283080E1,8.788750311E-1,2.964251775E1
4.777980208E0,1.243638216E1,-2.744288223E1,2.407601424E0,3.022535246E1
4.788050208E0,1.317930599E1,-2.736170885E1,3.571843017E0,3.057965467E1
4.798120208E0,1.412975569E1,-2.711178014E1,4.649918725E0,3.092442986E1
4.808190208E0,1.593971569E1,-2.625614538E1,4.551015412E0,3.105111025E1
4.818260208E0,1.823444963E1,-2.474551254E1,4.068534459E0,3.100626576E1
4.828330208E0,2.023855823E1,-2.313198039E1,3.561494323E0,3.094142851E1
4.838400208E0,2.237747206E1,-2.205221250E1,3.534663789E0,3.161558445E1
4.848470208E0,2.457271562E1,-2.097265043E1,3.457396927E0,3.249036800E1
4.858540208E0,2.695606879E1,-2.006045204E1,2.976350881E0,3.373292227E1
4.868610208E0,2.955742720E1,-1.907880979E1,2.620298717E0,3.527759134E1
4.878680208E0,3.159339495E1,-1.823028992E1,2.163518908E0,3.653993553E1
4.888750208E0,3.277580954E1,-1.752183659E1,1.705481801E0,3.720453086E1
4.898820208E0,3.323030426E1,-1.668743892E1,9.761634171E-1,3.719780415E1
4.908890208E0,3.273635253E1,-1.587656576E1,5.680745423E-1,3.638759165E1
4.918960208E0,3.146412003E1,-1.513224678E1,7.498364834E-1,3.492188421E1
4.929030208E0,2.977367595E1,-1.442337129E1,1.101392065E0,3.310163868E1
4.939100208E0,2.814818508E1,-1.394727345E1,1.650796448E0,3.145746158E1
4.949170208E0,2.630015152E1,-1.355814476E1,1.809905033E0,2.964451071E1
4.959240208E0,2.400485041E1,-1.402102672E1,2.484143377E0,2.791044610E1
4.969310208E0,2.102033564E1,-1.482989194E1,3.148981737E0,2.591710423E1
4.979380208E0,1.657516068E1,-1.610007207E1,3.048280989E0,2.330751573E1
4.989450208E0,1.030276591E1,-1.724340037E1,2.740288260E0,2.027291349E1
4.999520208E0,3.814245189E0,-1.857059202E1,2.182991013E0,1.908352180E1
5.009591083E0,-1.473756207E0,-2.126191687E1,2.046798397E0,2.141098900E1
5.019661083E0,-4.492816905E0,-2.532392145E1,2.869694744E0,2.587897890E1
5.029731083E0,-7.152743956E0,-2.942694074E1,6.159511347E0,3.090382124E1
5.039801083E0,-9.934288416E0,-3.428009932E1,1.032708682E1,3.715459619E1
5.049871083E0,-1.419213496E1,-3.694183375E1,1.426509769E1,4.206671829E1
5.059941083E0,-1.884956034E1,-3.768409568E1,1.683847016E1,4.537544566E1
5.070011083E0,-2.219837418E1,-3.744914286E1,1.701578931E1,4.674123664E1
5.080081083E0,-2.363775987E1,-3.708061390E1,1.678488861E1,4.706854687E1
5.090151083E0,-2.382600981E1,-3.612920877E1,1.667733610E1,4.638029764E1
5.100221083E0,-2.375895628E1,-3.497652376E1,1.578470951E1,4.513316155E1
5.110291083E0,-2.314978166E1,-3.354135742E1,1.459978646E1,4.329074743E1
5.120361083E0,-2.130926528E1,-3.192493207E1,1.325216230E1,4.060672211E1
5.130431083E0,-1.802747106E1,-3.016715614E1,1.167121786E1,3.703058666E1
5.140501083E0,-1.363796627E1,-2.840785993E1,9.952265096E0,3.304615273E1
5.150571083E0,-8.566625260E0,-2.676597113E1,8.103735695E0,2.924850100E1
5.160641083E0,-2.733886144E0,-2.548180095E1,6.027861872E0,2.632738938E1
5.170711083E0,3.242548882E0,-2.469091825E1,3.992523286E0,2.522093990E1
5.180781083E0,8.738341026E0,-2.437845708E1,2.572191335E0,2.602467948E1
5.190851083E0,1.376808669E1,-2.475024410E1,2.592767102E0,2.844041553E1
5.200921083E0,1.914764789E1,-2.574141264E1,3.974726993E0,3.232725165E1
5.210992083E0,2.425612164E1,-2.678948161E1,4.924740200E0,3.647312473E1
5.221062083E0,2.849598916E1,-2.751290147E1,6.167107465E0,4.008758361E1
5.231132083E0,3.156962251E1,-2.746702889E1,7.196162456E0,4.246014008E1
5.241202083E0,3.235256234E1,-2.650682955E1,7.785463561E0,4.254308105E1
5.251272083E0,3.211192603E1,-2.575168036E1,8.382799909E0,4.200709665E1
5.261342083E0,3.144492245E1,-2.473579914E1,8.203985038E0,4.084052249E1
5.271412083E0,3.047468226E1,-2.392812558E1,8.035906824E0,3.957066150E1
5.281482083E0,2.905419009E1,-2.386383428E1,8.749741927E0,3.860293424E1
5.291552083E0,2.653567971E1,-2.380408977E1,1.014413446E1,3.706319537E1
5.301622083E0,2.312734472E1,-2.361573925E1,1.107122337E1,3.485899025E1
5.311692083E0,1.950600853E1,-2.328346304E1,1.091715742E1,3.227674621E1
5.321762083E0,1.605770549E1,-2.258421089E1,1.010861380E1,2.949712799E1
5.331832083E0,1.296553647E1,-2.171164493E1,8.999734955E0,2.684205452E1
5.341902083E0,1.038261315E1,-2.101449077E1,8.074995461E0,2.479139023E1
5.351972083E0,8.187687094E0,-2.049799919E1,7.249404863E0,2.323273685E1
5.362042083E0,6.687172859E0,-1.973392247E1,6.936035035E0,2.196029506E1
5.372112083E0,5.632117639E0,-1.855189029E1,6.088785181E0,2.032158181E1
5.382182083E0,4.892174717E0,-1.731932646E1,4.359041966E0,1.851738884E1
5.392252083E0,4.544156043E0,-1.629830672E1,2.743583751E0,1.714092786E1
5.402322083E0,4.496336344E0,-1.537355904E1,1.214825710E0,1.606359734E1
5.412392083E0,4.779866077E0,-1.474670945E1,1.192972326E-1,1.550247694E1
5.422462083E0,4.856897880E0,-1.447526065E1,-2.025189171E-1,1.526969685E1
5.432532083E0,4.504443508E0,-1.417518856E1,2.551783748E-1,1.487585621E1
5.442602083E0,4.242123381E0,-1.398495174E1,1.214562585E0,1.466457119E1
5.452672083E0,4.788463823E0,-1.353728423E1,2.417191588E0,1.456125905E1
5.462742083E0,5.642193561E0,-1.261505436E1,2.852479956E0,1.411065507E1
5.472812083E0,7.177759514E0,-1.147867723E1,2.436870393E0,1.375567519E1
5.482882083E0,1.002708139E1,-1.012830488E1,1.898047131E0,1.437802155E1
5.492952083E0,1.408289728E1,-8.519206679E0,7.630001738E-1,1.647686400E1
5.503022083E0,1.897087954E1,-6.900405611E0,1.687162913E-1,2.018757869E1
5.513092083E0,2.439644078E1,-5.944191139E0,8.864846706E-1,2.512579523E1
5.523162083E0,2.957418298E1,-6.294869127E0,2.462704561E0,3.033681905E1
5.533232083E0,3.532439333E1,-6.826871027E0,5.670560743E0,3.642216621E1
5.543302083E0,4.152018022E1,-6.758493102E0,9.437333558E0,4.311224720E1
5.553372083E0,4.727558055E1,-5.231666982E0,1.347617264E1,4.943640445E1
5.563442083E0,5.355851200E1,-1.841643720E0,1.672519439E1,5.613945125E1
5.573512083E0,5.970968931E1,2.263992199E0,1.821844463E1,6.246826701E1
5.583582083E0,6.488157962E1,7.093629776E0,1.841384922E1,6.781599222E1
5.593652083E0,6.906645525E1,1.076325753E1,1.740728730E1,7.203496793E1
5.603722083E0,6.593974322E1,9.657663075E0,1.879215822E1,6.924207827E1
5.613792083E0,6.182556745E1,7.822005735E0,1.778965661E1,6.480784247E1
5.623862083E0,5.873867261E1,6.317829974E0,1.289745032E1,6.046892475E1
5.633932083E0,5.376922694E1,3.431469204E0,8.723744037E0,5.458029367E1
5.644002083E0,4.738474573E1,-7.805956882E-1,6.983942442E0,4.790301566E1
5.654072083E0,4.127456909E1,-4.234962588E0,6.295947354E0,4.196622350E1
5.664142083E0,3.631612788E1,-7.274149110E0,5.197491760E0,3.740037847E1
5.674212083E0,3.206583594E1,-9.760707972E0,3.489013699E0,3.369959156E1
5.684282083E0,2.813501481E1,-1.171009366E1,1.735522603E0,3.052404610E1
5.694352083E0,2.448938344E1,-1.350270496E1,1.495459317E0,2.800516633E1
5.704422083E0,2.121636238E1,-1.561410413E1,2.244572427E0,2.643808589E1
5.714492083E0,1.823313517E1,-1.760313979E1,3.287318088E0,2.555629489E1
5.724562083E0,1.532173633E1,-1.910370255E1,3.873518414E0,2.479337009E1
5.734632083E0,1.254687232E1,-2.035586741E1,3.647708886E0,2.418865691E1
5.744702083E0,1.040088921E1,-2.136672236E1,2.865702850E0,2.393590553E1
5.754772083E0,8.818639085E0,-2.215653151E1,1.741645076E0,2.391053348E1
5.764842083E0,7.734469408E0,-2.280745759E1,1.077779400E0,2.410733803E1
5.774912083E0,7.298765888E0,-2.352881221E1,7.807069315E-1,2.464724104E1
5.784982083E0,7.343090122E0,-2.393259753E1,4.580182493E-1,2.503797072E1
5.795052083E0,7.750456865E0,-2.421412459E1,-6.409969229E-1,2.543234729E1
5.805122083E0,8.717778123E0,-2.457740509E1,-1.627933835E0,2.612850292E1
5.815193083E0,1.013459064E1,-2.502002060E1,-1.589170303E0,2.704139087E1
5.825263083E0,1.172842234E1,-2.567370423E1,-1.055814189E0,2.824552571E1
5.835332083E0,1.289398058E1,-2.622739579E1,-2.093665000E-1,2.922627002E1
5.845402083E0,1.356535203E1,-2.646065291E1,1.477638173E0,2.977193885E1
5.855473083E0,1.406552871E1,-2.631787560E1,3.117762283E0,3.000316843E1
5.865543083E0,1.486673992E1,-2.627214102E1,4.614717318E0,3.053753372E1
5.875613083E0,1.606729726E1,-2.583428982E1,6.479955722E0,3.110560075E1
5.885683083E0,1.709623647E1,-2.501416871E1,7.999139532E0,3.133649902E1
5.895753083E0,1.788818921E1,-2.411564813E1,8.379289241E0,3.117313404E1
5.905823083E0,1.846237994E1,-2.280942225E1,8.170621995E0,3.046125868E1
5.915893083E0,1.873747389E1,-2.144879154E1,7.257298604E0,2.939067828E1
5.925963083E0,1.925626109E1,-2.019133612E1,6.805823389E0,2.871955566E1
5.936033083E0,2.022308650E1,-1.861839769E1,6.155376781E0,2.816924961E1
5.946103083E0,2.109286217E1,-1.706768452E1,4.456078849E0,2.749675123E1
5.956173083E0,2.181821161E1,-1.561006604E1,3.313186755E0,2.703119913E1
5.966243083E0,2.227276246E1,-1.418939846E1,2.697802391E0,2.654605647E1
5.976313083E0,2.214383135E1,-1.311758044E1,1.800009205E0,2.580039180E1
5.986383083E0,2.162867996E1,-1.215639526E1,9.072925723E-1,2.482742279E1
5.996453083E0,2.088417972E1,-1.136836132E1,6.807422749E-1,2.378764410E1
6.006523083E0,1.987732661E1,-1.115184711E1,3.982842636E-1,2.279540387E1
6.016592708E0,1.822331068E1,-1.132245016E1,5.408814812E-1,2.146111559E1
6.026662708E0,1.567350132E1,-1.176448095E1,8.505833513E-1,1.961594116E1
6.036732708E0,1.219561721E1,-1.279358506E1,1.192356030E0,1.771526490E1
6.046802708E0,8.044240860E0,-1.457446334E1,1.784797089E0,1.674246975E1
6.056872708E0,3.592255062E0,-1.699020073E1,2.507642752E0,1.754592515E1
6.066942708E0,-1.663380826E0,-1.907436239E1,3.508440489E0,1.946554112E1
6.077012708E0,-6.956127237E0,-2.183151987E1,4.126270158E0,2.328151781E1
6.087082708E0,-1.100354301E1,-2.552134684E1,4.508734195E0,2.815574164E1
6.097152708E0,-1.555880701E1,-2.820396284E1,5.564451905E0,3.268796599E1
6.107222708E0,-1.909958611E1,-3.079667673E1,7.241544451E0,3.695496521E1
6.117292708E0,-2.137747422E1,-3.241028372E1,8.320785509E0,3.970715762E1
6.127362708E0,-2.281271774E1,-3.320470515E1,9.412149600E0,4.137101757E1
6.137432708E0,-2.320362048E1,-3.393333137E1,9.923729514E0,4.228899843E1
6.147502708E0,-2.310436984E1,-3.389469297E1,1.115989522E1,4.251123826E1
6.157572708E0,-2.247451713E1,-3.340273631E1,1.172250379E1,4.193165639E1
6.167642708E0,-2.153367440E1,-3.239736839E1,1.140412406E1,4.053816297E1
6.177712708E0,-1.995732587E1,-3.123374675E1,1.060723160E1,3.855327682E1
6.187782708E0,-1.719319734E1,-2.996477933E1,9.314013441E0,3.578050980E1
6.197852708E0,-1.364898242E1,-2.865272962E1,8.143921269E0,3.276579145E1
6.207922708E0,-9.245951850E0,-2.759498001E1,6.952471558E0,2.992168792E1
6.217992708E0,-4.310769693E0,-2.682489001E1,5.811578043E0,2.778366244E1
6.228062708E0,7.662197238E-1,-2.635353894E1,4.600424384E0,2.676303443E1
6.238132708E0,5.330508900E0,-2.668270444E1,3.256399766E0,2.740410883E1
6.248202708E0,9.637112451E0,-2.769214202E1,2.541271551E0,2.943105039E1
6.258272708E0,1.432068950E1,-2.912649209E1,3.262171260E0,3.262018471E1
6.268342708E0,1.895930439E1,-3.087949435E1,4.094020425E0,3.646586620E1
6.278412708E0,2.229983273E1,-3.201326713E1,5.059202771E0,3.934116603E1
6.288482708E0,2.473231420E1,-3.228959719E1,6.300528063E0,4.115825684E1
6.298552708E0,2.584869268E1,-3.178466907E1,7.368968729E0,4.162597508E1
6.308622708E0,2.575305796E1,-3.112808756E1,8.437159134E0,4.127182433E1
6.318692708E0,2.446899303E1,-2.985172458E1,8.849466190E0,3.960012793E1
6.328762708E0,2.236213364E1,-2.840231209E1,8.119289289E0,3.704968571E1
6.338832708E0,2.016700702E1,-2.753000107E1,7.522710739E0,3.494567653E1
6.348902708E0,1.832176610E1,-2.676181259E1,7.408368437E0,3.326808754E1
6.358972708E0,1.674760326E1,-2.621098148E1,6.755710412E0,3.182981917E1
6.369042708E0,1.556935656E1,-2.580350540E1,5.899917777E0,3.070887143E1
6.379112708E0,1.454968401E1,-2.551392321E1,4.697377067E0,2.974422522E1
6.389182708E0,1.393426339E1,-2.554848026E1,3.868790356E0,2.935738542E1
6.399252708E0,1.332794455E1,-2.551005469E1,4.374794365E0,2.911246850E1
6.409322708E0,1.248407205E1,-2.514271389E1,5.748878934E0,2.865410487E1
6.419392708E0,1.146561689E1,-2.441339536E1,6.554940416E0,2.775682777E1
6.429462708E0,1.033871343E1,-2.323990128E1,6.676562501E0,2.629749976E1
6.439532708E0,9.278854718E0,-2.155913084E1,6.385107452E0,2.432412104E1
6.449602708E0,8.197464808E0,-1.970794680E1,5.094728115E0,2.194442642E1
6.459672708E0,7.306074908E0,-1.788560591E1,3.487961785E0,1.963261334E1
6.469742708E0,6.609093234E0,-1.614822974E1,1.806558672E0,1.754163879E1
6.479812708E0,6.317569773E0,-1.449779465E1,5.211599922E-1,1.582306371E1
6.489882708E0,6.025598999E0,-1.304456860E1,-2.928460832E-1,1.437199959E1
6.499952708E0,5.891572046E0,-1.183502527E1,-6.874489582E-1,1.323824121E1
6.510022708E0,6.038123150E0,-1.077854216E1,-4.011447215E-1,1.236110105E1
6.520092708E0,6.705701516E0,-9.082980010E0,4.635286653E-1,1.129963794E1
6.530162708E0,9.221967157E0,-7.218704057E0,1.071408713E0,1.176019911E1
6.540232708E0,1.298966091E1,-5.145956156E0,1.093113577E0,1.401453005E1
6.550302708E0,1.733305573E1,-2.514569364E0,8.972295141E-1,1.753747133E1
6.560372708E0,2.128245229E1,1.405249643E-1,8.726154406E-2,2.128309510E1
6.570442708E0,2.412762790E1,2.726290610E0,1.618439126E-1,2.428170674E1
6.580512708E0,2.654394767E1,5.055300924E0,1.286288041E0,2.705164990E1
6.590582708E0,2.972159363E1,7.159955328E0,3.470848739E0,3.076824465E1
6.600652708E0,3.423787307E1,8.847060646E0,5.931270547E0,3.585641372E1
6.610722708E0,4.033373338E1,9.740935028E0,7.454727502E0,4.215766628E1
6.620792708E0,4.719664782E1,1.108734648E1,7.340802691E0,4.903407184E1
6.630862708E0,5.380797761E1,1.311737111E1,6.244777200E0,5.573473891E1
6.640932708E0,5.947951484E1,1.542674648E1,4.288939698E0,6.159701450E1
6.651002708E0,6.302206213E1,1.663949993E1,2.279936972E0,6.522155615E1
6.661072708E0,6.377864038E1,1.593459938E1,1.652791518E0,6.575985209E1
6.671142708E0,6.161562434E1,1.351344630E1,2.095657293E0,6.311489660E1
6.681212708E0,5.791712478E1,1.000623022E1,3.173794981E0,5.886077608E1
6.691282708E0,5.372191127E1,6.246278765E0,3.581925956E0,5.420230570E1
6.701352708E0,4.931341473E1,2.822593960E0,2.928991942E0,4.948089432E1
6.711422708E0,4.491117704E1,-2.274359313E-1,1.387586374E0,4.493318313E1
6.721492708E0,4.093739993E1,-2.794686661E0,-6.932189175E-1,4.103853724E1
6.731562708E0,3.743082938E1,-5.372096636E0,-2.381430602E0,3.788928109E1
6.741632708E0,3.364649270E1,-8.070239335E0,-3.322230059E0,3.475992587E1
6.751702708E0,2.964935946E1,-1.118495639E1,-2.528648289E0,3.178964970E1
6.761772708E0,2.564420385E1,-1.430134224E1,-1.544254222E-3,2.936245193E1
6.771842708E0,2.167535477E1,-1.707416557E1,1.922366871E0,2.765942207E1
6.781912708E0,1.813492534E1,-1.958311927E1,2.926514477E0,2.685029915E1
6.791982708E0,1.540068778E1,-2.142306613E1,3.766068810E0,2.665168326E1
6.802052708E0,1.315868988E1,-2.281951454E1,3.320255454E0,2.655005574E1
6.812122708E0,1.153474151E1,-2.389808960E1,2.308654402E0,2.663641931E1
6.822192708E0,1.057045846E1,-2.447799306E1,1.588648732E0,2.671012058E1
6.832262708E0,9.691681591E0,-2.495907390E1,9.797951227E-1,2.679261205E1
6.842332708E0,9.174547407E0,-2.530645698E1,5.822312361E-1,2.692448845E1
6.852402708E0,8.951988931E0,-2.528522223E1,1.060521197E-1,2.682334461E1
6.862472708E0,9.113640470E0,-2.522236233E1,6.790371537E-2,2.681847525E1
6.872542708E0,9.793860515E0,-2.514182746E1,2.210949183E-1,2.698295897E1
6.882612708E0,1.096480170E1,-2.483975796E1,3.134516895E-1,2.715398136E1
6.892682708E0,1.179841468E1,-2.407001178E1,1.361627953E-1,2.680646557E1
6.902752708E0,1.275570796E1,-2.339625115E1,9.507791921E-2,2.664773336E1
6.912822708E0,1.403539567E1,-2.262546885E1,4.111621714E-1,2.662842891E1
6.922892708E0,1.507278294E1,-2.149719245E1,8.945817487E-1,2.627010364E1
6.932962708E0,1.583651701E1,-2.045446082E1,1.483384963E0,2.591101445E1
6.943032708E0,1.663507944E1,-1.929972110E1,1.928325183E0,2.555236859E1
6.953102708E0,1.738404462E1,-1.794752091E1,2.134520227E0,2.507737407E1
6.963172708E0,1.888480385E1,-1.692356586E1,2.321796019E0,2.546436008E1
6.973242708E0,2.135786734E1,-1.529360538E1,2.520472713E0,2.638949877E1
6.983312708E0,2.412217362E1,-1.360374368E1,2.647944353E0,2.782000560E1
6.993382708E0,2.673892892E1,-1.297272854E1,2.183241566E0,2.979980788E1
7.003452708E0,2.869904191E1,-1.219133939E1,7.862037528E-1,3.119105447E1
7.013522708E0,2.979516563E1,-1.101759270E1,-1.168301754E0,3.178842829E1
7.023592708E0,2.973609706E1,-9.912647871E0,-3.690290065E0,3.156127844E1
7.033662708E0,2.850737486E1,-9.141259793E0,-5.089181446E0,3.036663992E1
7.043732708E0,2.640510904E1,-8.502128717E0,-4.868928527E0,2.816420496E1
7.053802708E0,2.415900172E1,-8.046492623E0,-3.784259498E0,2.574342688E1
7.063872708E0,2.238479745E1,-7.995596119E0,-2.619136291E0,2.391377404E1
7.073942708E0,2.095827330E1,-8.443257780E0,-1.796303240E0,2.266637436E1
7.084012708E0,1.897849262E1,-9.370919713E0,-9.617712267E-1,2.118778710E1
7.094082708E0,1.596949907E1,-1.078279425E1,-2.329940021E-2,1.926899310E1
7.104152708E0,1.155853967E1,-1.305018427E1,5.235909721E-1,1.744079403E1
7.114222708E0,6.183208943E0,-1.610841488E1,1.917512220E0,1.736058628E1
7.124292708E0,1.467537693E0,-2.046601726E1,3.803084024E0,2.086803722E1
7.134362708E0,-3.194146800E0,-2.509114145E1,6.282143247E0,2.606210423E1
7.144432708E0,-8.807641057E0,-2.952350867E1,8.938483032E0,3.207972232E1
7.154502708E0,-1.555224176E1,-3.343059946E1,1.368985680E1,3.933051466E1
7.164572708E0,-2.138875467E1,-3.678396828E1,1.917725117E1,4.667232704E1
7.174642708E0,-2.535341246E1,-3.860078706E1,2.214724847E1,5.121832582E1
7.184712708E0,-2.800719935E1,-3.876888750E1,2.192969930E1,5.261503174E1
7.194782708E0,-2.882862089E1,-3.803122382E1,2.068606904E1,5.201323696E1
7.204852708E0,-2.839778634E1,-3.729256612E1,1.946575396E1,5.075515081E1
7.214922708E0,-2.740858948E1,-3.637434744E1,1.866162264E1,4.921971240E1
7.224992708E0,-2.510752769E1,-3.512034655E1,1.726952573E1,4.649799143E1
7.235062708E0,-2.154591145E1,-3.334670829E1,1.520420964E1,4.251349485E1
7.245132708E0,-1.679346297E1,-3.140679158E1,1.258887754E1,3.777415511E1
7.255202708E0,-1.144729990E1,-2.939580548E1,9.946766374E0,3.307706481E1
7.265272708E0,-6.046772352E0,-2.800338463E1,8.004524817E0,2.974601527E1
7.275342708E0,1.223003626E-1,-2.739092621E1,6.563887825E0,2.816668989E1
7.285412708E0,6.406759692E0,-2.750440430E1,6.086808822E0,2.888923791E1
7.295482708E0,1.303128724E1,-2.803867141E1,6.986697065E0,3.169850907E1
7.305551708E0,1.946534582E1,-2.861244231E1,8.793716497E0,3.570575574E1
7.315622708E0,2.491308672E1,-2.910245067E1,1.091107749E1,3.983297801E1
7.325692708E0,2.871485746E1,-2.907847709E1,1.209781200E1,4.261992403E1
7.335762708E0,3.149023369E1,-2.847004623E1,1.238131776E1,4.422075734E1
7.345831708E0,3.364200437E1,-2.731940073E1,1.173631491E1,4.489849889E1
7.355902708E0,3.496340261E1,-2.559310387E1,1.052880407E1,4.459038240E1
7.365971708E0,3.575201892E1,-2.359744916E1,8.820556387E0,4.373612556E1
7.376042708E0,3.523517651E1,-2.141725166E1,6.883673218E0,4.180432142E1
7.386112708E0,3.319806037E1,-1.947408039E1,5.316447515E0,3.885377245E1
7.396181708E0,2.908673804E1,-1.812243569E1,4.432968898E0,3.455592884E1
7.406252708E0,2.350151273E1,-1.796488948E1,4.593378781E0,2.993588955E1
7.416321708E0,1.760693814E1,-1.871665196E1,5.581506479E0,2.629582753E1
7.426391708E0,1.231647916E1,-2.002628559E1,7.110445198E0,2.456229233E1
7.436461708E0,8.241791965E0,-2.124361742E1,8.746845217E0,2.440749305E1
7.446531708E0,5.581867837E0,-2.210637175E1,1.001825092E1,2.490410151E1
7.456601708E0,4.076533157E0,-2.224428886E1,1.020369069E1,2.481011514E1
7.466671708E0,3.446192785E0,-2.173969520E1,9.935252037E0,2.414953053E1
7.476741708E0,3.044444631E0,-2.075520184E1,8.763230869E0,2.273414308E1
7.486811708E0,2.721459056E0,-1.939905243E1,7.336121995E0,2.091765428E1
7.496881708E0,2.256958584E0,-1.803038063E1,5.921762390E0,1.911166548E1
7.506951708E0,1.693018607E0,-1.668334587E1,4.201320341E0,1.728732003E1
7.517021708E0,1.212882680E0,-1.556310589E1,2.485644357E0,1.580695344E1
7.527091708E0,9.821550590E-1,-1.457772258E1,6.435720366E-1,1.462493792E1
7.537161708E0,9.731673038E-1,-1.394565962E1,-1.118217428E0,1.402422500E1
7.547231708E0,1.129438235E0,-1.376646468E1,-2.199203003E0,1.398669633E1
7.557301708E0,1.568495134E0,-1.404684335E1,-2.374976738E0,1.433228870E1
7.567371708E0,2.221371260E0,-1.499909048E1,-1.378679311E0,1.522524096E1
7.577441708E0,3.194284794E0,-1.562982729E1,1.059279249E0,1.598802768E1
7.587511708E0,5.794486631E0,-1.626635402E1,3.914350106E0,1.770571900E1
7.597581708E0,1.077821939E1,-1.644220903E1,6.193074950E0,2.061238532E1
7.607651708E0,1.649723835E1,-1.515365695E1,7.371857838E0,2.358254609E1
7.617721708E0,2.313986010E1,-1.421017362E1,7.649114678E0,2.821154223E1
7.627791708E0,3.022954359E1,-1.398296485E1,8.539298882E0,3.438412769E1
7.637861708E0,3.647024645E1,-1.457914111E1,1.098441092E1,4.078342206E1
7.647931708E0,4.231400289E1,-1.569671009E1,1.439125019E1,4.737055658E1
7.658001708E0,4.741306964E1,-1.524733051E1,1.962789608E1,5.353255612E1
7.668071708E0,5.285951713E1,-1.355381431E1,2.547571984E1,6.022330724E1
7.678141708E0,5.945692120E1,-1.159022691E1,2.896616143E1,6.714534493E1
7.688211708E0,6.420566488E1,-8.764579237E0,3.052160266E1,7.162927810E1
7.698281708E0,6.659615633E1,-4.164636079E0,3.071837082E1,7.345754241E1
7.708351708E0,7.064198050E1,9.542591625E-1,2.997944180E1,7.674612010E1
7.718421708E0,6.861089634E1,-2.098688489E-1,2.850812096E1,7.429812988E1
7.728491708E0,6.158534979E1,-4.035951726E0,2.383774166E1,6.616103191E1
7.738561708E0,5.482884533E1,-5.120358215E0,2.178458310E1,5.921983122E1
7.748631708E0,4.841198457E1,-5.847174137E0,1.990912844E1,5.267146373E1
7.758701708E0,4.139062463E1,-7.254624673E0,1.599941108E1,4.496436969E1
7.768771708E0,3.469982416E1,-8.410227444E0,1.112194211E1,3.739662175E1
7.778841708E0,2.845339570E1,-9.891911305E0,6.082962524E0,3.073187383E1
7.788911708E0,2.300513557E1,-1.197048654E1,2.841355044E0,2.608835199E1
7.798981708E0,1.867290894E1,-1.396015370E1,1.127820018E0,2.334170939E1
7.809051708E0,1.553881304E1,-1.597241683E1,-7.580529177E-1,2.229680368E1
7.819121708E0,1.354284025E1,-1.788578600E1,-2.224875204E0,2.254462093E1
7.829191708E0,1.206729304E1,-2.015587393E1,-2.897549125E0,2.367012053E1
7.839261708E0,1.118940846E1,-2.256834857E1,-3.085514304E0,2.537821146E1
7.849331708E0,1.024716357E1,-2.462100193E1,-3.451903760E0,2.689077419E1
7.859401708E0,9.057168061E0,-2.681154433E1,-3.730817116E0,2.854488043E1
7.869471708E0,8.127989361E0,-2.861863568E1,-3.387963580E0,2.994275900E1
7.879541708E0,7.471984389E0,-2.959268591E1,-3.031303891E0,3.067158968E1
7.889611708E0,7.419660580E0,-2.993185015E1,-2.595605341E0,3.094679601E1
7.899681708E0,7.723690651E0,-2.986416980E1,-1.720792443E0,3.089474327E1
7.909751708E0,7.904539769E0,-2.925773635E1,-6.037514748E-1,3.031272672E1
7.919821708E0,8.429865317E0,-2.841619572E1,5.640352126E-1,2.964558895E1
7.929891708E0,9.386220122E0,-2.755294554E1,1.416705508E0,2.914228870E1
7.939961708E0,1.060357475E1,-2.647029614E1,1.755886116E0,2.856913564E1
7.950031708E0,1.226461669E1,-2.522803880E1,1.848883742E0,2.811215281E1
7.960101708E0,1.387697588E1,-2.355886222E1,2.400408471E0,2.744726598E1
7.970171708E0,1.505963255E1,-2.196982055E1,2.476406926E0,2.675066614E1
7.980241708E0,1.662245764E1,-2.033580912E1,2.115619833E0,2.635008687E1
7.990311708E0,1.889039379E1,-1.807354244E1,2.051441817E0,2.622419355E1
8.000381708E0,2.156439801E1,-1.596510664E1,2.110990154E0,2.691401440E1
8.010452000E0,2.459708447E1,-1.425238935E1,2.453740779E0,2.853362947E1
8.020522000E0,2.745176064E1,-1.317263315E1,2.420921820E0,3.054469330E1
8.030592000E0,3.018161981E1,-1.292207060E1,2.659765084E0,3.293910189E1
8.040662000E0,3.166138871E1,-1.273771959E1,2.962807560E0,3.425596684E1
8.050732000E0,3.208225726E1,-1.258802619E1,3.025205537E0,3.459597524E1
8.060802000E0,3.078478583E1,-1.216007315E1,3.286801779E0,3.326219301E1
8.070872000E0,2.804418416E1,-1.212998689E1,3.512324209E0,3.075628828E1
8.080942000E0,2.485080686E1,-1.142222704E1,3.800573230E0,2.761293590E1
8.091012000E0,2.160831060E1,-1.063956553E1,3.827841135E0,2.438794394E1
8.101082000E0,1.749942538E1,-9.801610415E0,3.491769492E0,2.035912350E1
8.111152000E0,1.398367587E1,-9.445078779E0,2.453947186E0,1.705211309E1
8.121222000E0,1.020419823E1,-9.855326446E0,1.272110882E0,1.424329270E1
8.131292000E0,5.791416258E0,-1.133260092E1,6.437538119E-1,1.274294962E1
8.141362000E0,1.897066553E0,-1.450669879E1,1.688360131E-1,1.463118850E1
8.151432000E0,-2.347894481E0,-1.945105289E1,-1.756363249E-1,1.959303231E1
8.161502000E0,-8.479195352E0,-2.484630216E1,1.489482878E0,2.629551376E1
8.171572000E0,-1.470392654E1,-2.973115032E1,4.126274836E0,3.342413647E1
8.181642000E0,-1.968250440E1,-3.399550598E1,6.806025703E0,3.986749794E1
8.191712000E0,-2.277800165E1,-3.666429215E1,1.001500923E1,4.431036095E1
8.201782000E0,-2.488879271E1,-3.796992863E1,1.276943138E1,4.716169908E1
8.211852000E0,-2.652601075E1,-3.867653891E1,1.514089832E1,4.928235699E1
8.221922000E0,-2.693864174E1,-3.880818079E1,1.688127645E1,5.016714871E1
8.231992000E0,-2.544209835E1,-3.796761547E1,1.666153692E1,4.864614071E1
8.242061000E0,-2.259264959E1,-3.601647679E1,1.470552868E1,4.498740923E1
8.252131000E0,-1.887267438E1,-3.322845888E1,1.191100282E1,4.002724454E1
8.262201000E0,-1.463063286E1,-2.999102163E1,8.967536677E0,3.455334297E1
8.272271000E0,-1.011913761E1,-2.706075032E1,6.552275255E0,2.962454160E1
8.282341000E0,-5.307390178E0,-2.507528614E1,5.040547814E0,2.612174358E1
8.292411000E0,-4.954521239E-2,-2.432233551E1,4.039962916E0,2.465562328E1
8.302481000E0,5.343246474E0,-2.428361057E1,3.312175479E0,2.508414901E1
8.312551000E0,1.089749557E1,-2.471613846E1,3.096823989E0,2.718884384E1
8.322621000E0,1.655432588E1,-2.574801766E1,4.712532173E0,3.097118142E1
8.332691000E0,2.257094005E1,-2.695629098E1,7.851792036E0,3.602415296E1
8.342761000E0,2.771829311E1,-2.737587314E1,9.777788858E0,4.016649547E1
8.352831000E0,3.092372737E1,-2.693303076E1,1.113280741E1,4.249240475E1
8.362901000E0,3.125341912E1,-2.575931682E1,1.220360684E1,4.229948734E1
8.372971000E0,2.959225322E1,-2.451342485E1,1.252258064E1,4.041564641E1
8.383041000E0,2.724933939E1,-2.297685844E1,1.200720823E1,3.761164142E1
8.393111000E0,2.474664690E1,-2.129405550E1,1.059007002E1,3.432175572E1
8.403181000E0,2.256421341E1,-1.984085635E1,8.909759170E0,3.133986465E1
8.413251000E0,2.059284103E1,-1.878116546E1,7.556892393E0,2.887739428E1
8.423321000E0,1.870968442E1,-1.844667432E1,6.858981596E0,2.715469965E1
8.433391000E0,1.679275195E1,-1.817487001E1,6.657390651E0,2.562505157E1
8.443461000E0,1.486724629E1,-1.831744150E1,6.021472034E0,2.434793217E1
8.453531000E0,1.294915257E1,-1.846694778E1,5.596850157E0,2.323861967E1
8.463601000E0,1.104099560E1,-1.862300529E1,5.305697994E0,2.229058862E1
8.473671000E0,9.013477081E0,-1.889625620E1,4.671864495E0,2.145081783E1
8.483741000E0,7.011091649E0,-1.931813048E1,4.074311800E0,2.095102832E1
8.493811000E0,5.274165130E0,-1.968537889E1,4.092753918E0,2.078657245E1
8.503881000E0,3.828656237E0,-2.016989321E1,4.591835994E0,2.103730397E1
8.513951000E0,2.772810473E0,-2.061284085E1,5.744023991E0,2.157710586E1
8.524021000E0,1.992724078E0,-2.054107212E1,6.802027377E0,2.172956901E1
8.534091000E0,1.694611389E0,-1.977695330E1,7.076770499E0,2.107321215E1
8.544161000E0,1.956909297E0,-1.871072171E1,6.291584162E0,1.983695118E1
8.554231000E0,2.931125591E0,-1.769435284E1,4.480134294E0,1.848656872E1
8.564301000E0,4.531863441E0,-1.646255266E1,2.335778466E0,1.723395740E1
8.574371000E0,5.534335821E0,-1.499636568E1,6.511248851E-1,1.599824428E1
8.584441000E0,6.115653722E0,-1.418525396E1,-1.735348356E-1,1.544839036E1
8.594511000E0,5.977047229E0,-1.356143089E1,-3.908121067E-1,1.482532413E1
8.604581000E0,6.430932666E0,-1.384044599E1,2.825000381E-1,1.526416216E1
8.614651000E0,8.048012314E0,-1.365998688E1,1.628263033E0,1.593791029E1
8.624721000E0,1.125285893E1,-1.265412545E1,2.275667920E0,1.708602908E1
8.634791000E0,1.718866926E1,-1.152554033E1,1.936279736E0,2.078551443E1
8.644861000E0,2.516787797E1,-1.084620263E1,-3.185317504E-1,2.740736499E1
8.654931000E0,3.413203613E1,-1.142225043E1,-2.918490343E0,3.611068098E1
8.665001000E0,4.241039775E1,-1.254771081E1,-4.875993133E0,4.449564240E1
8.675071000E0,4.922995391E1,-1.286742954E1,-4.950516481E0,5.112403269E1
8.685141000E0,5.437871264E1,-1.260197063E1,-7.205406904E-1,5.582448594E1
8.695211000E0,5.894599617E1,-1.253909435E1,7.066479399E0,6.067779234E1
8.705281000E0,6.348917047E1,-1.240762321E1,1.588534945E1,6.661207253E1
8.715351000E0,6.729343914E1,-9.716997111E0,2.462365890E1,7.231287272E1
8.725421000E0,7.037895870E1,-6.215884938E0,2.971347301E1,7.664675813E1
8.735491000E0,7.113242156E1,-3.296329232E0,3.054266901E1,7.748252585E1
8.745561000E0,7.049134686E1,-6.786798888E-1,2.660081535E1,7.534649273E1
8.755631000E0,6.598634319E1,1.877987089E0,2.066229660E1,6.917119938E1
8.765701000E0,5.802950827E1,2.668665715E0,1.510364220E1,6.002220934E1
8.775771000E0,4.927376125E1,1.822587059E0,1.038675766E1,5.038958331E1
8.785841000E0,4.077869246E1,-4.010546744E-1,6.949066724E0,4.136849202E1
8.795911000E0,3.355694142E1,-3.872193728E0,4.585719806E0,3.408945626E1
8.805981000E0,2.765034612E1,-7.502051357E0,2.802825401E0,2.878677206E1
8.816051000E0,2.292747052E1,-1.123264394E1,1.279771319E0,2.556323549E1
8.826121000E0,1.876388343E1,-1.474908576E1,4.560768275E-1,2.387104644E1
8.836191000E0,1.545364601E1,-1.835364512E1,-8.934297010E-2,2.399332087E1
8.846261000E0,1.309586622E1,-2.185007192E1,-1.204132322E0,2.550249575E1
8.856331000E0,1.130907991E1,-2.513433367E1,-2.285127106E0,2.765595457E1
8.866401000E0,1.022293154E1,-2.769546090E1,-2.393129711E0,2.961881080E1
8.876470000E0,9.299081406E0,-2.944886078E1,-2.238147945E0,3.096316557E1
8.886540000E0,8.319682140E0,-3.067210765E1,-2.073779204E0,3.184801185E1
8.896610000E0,7.762445412E0,-3.125376060E1,-1.295934777E0,3.222937413E1
8.906680000E0,8.058239095E0,-3.111398875E1,7.806032896E-3,3.214055965E1
8.916750000E0,8.893544256E0,-3.015692585E1,1.502739100E0,3.147687295E1
8.926820000E0,9.655169238E0,-2.931096472E1,2.775937564E0,3.098484751E1
8.936890000E0,1.064602320E1,-2.841195298E1,4.051726345E0,3.061034741E1
8.946960000E0,1.240875290E1,-2.716796720E1,4.516250206E0,3.020715323E1
8.957030000E0,1.397631657E1,-2.542739144E1,4.165202090E0,2.931277142E1
8.967100000E0,1.545461080E1,-2.376425619E1,3.937666171E0,2.861974986E1
8.977170000E0,1.726610511E1,-2.202802842E1,3.884686304E0,2.825673741E1
8.987240000E0,1.957119914E1,-2.037742493E1,3.994290315E0,2.853463926E1
8.997310000E0,2.261312186E1,-1.859227934E1,3.511428416E0,2.948484799E1
9.007380000E0,2.623946444E1,-1.693262904E1,2.421615007E0,3.132231855E1
9.017454000E0,2.974533098E1,-1.545082531E1,8.459261902E-1,3.352951400E1
9.027524000E0,3.270395428E1,-1.430645036E1,-7.400915869E-1,3.570393372E1
9.037594000E0,3.473947763E1,-1.330587716E1,-2.240416957E0,3.726791034E1
9.047664000E0,3.560583619E1,-1.277051077E1,-3.251524358E0,3.796622087E1
9.057734000E0,3.459807325E1,-1.253191046E1,-3.653387117E0,3.697867885E1
9.067804000E0,3.238094473E1,-1.293323528E1,-2.419449198E0,3.495207992E1
9.077874000E0,2.950509462E1,-1.286767513E1,-1.831160831E-1,3.218945795E1
9.087944000E0,2.655695188E1,-1.223991688E1,1.195470842E0,2.926630159E1
9.098014000E0,2.347358643E1,-1.143533416E1,1.519244036E0,2.615500391E1
9.108084000E0,2.094272906E1,-1.082841540E1,7.966199096E-1,2.358997846E1
9.118154000E0,1.814382597E1,-1.140440824E1,-8.282361701E-2,2.143048781E1
9.128224000E0,1.448287256E1,-1.318052338E1,-2.314914139E-1,1.958400833E1
9.138294000E0,1.001837839E1,-1.637089639E1,6.903168713E-1,1.920548598E1
9.148364000E0,5.101583975E0,-2.077933914E1,2.077572439E0,2.149705565E1
9.158434000E0,-8.884300393E-1,-2.725012292E1,3.670065715E0,2.751050508E1
9.168504000E0,-8.548290730E0,-3.287798145E1,6.907469047E0,3.466623815E1
9.178574000E0,-1.489315297E1,-3.782136959E1,1.103164824E1,4.211839581E1
9.188644000E0,-1.855677037E1,-4.162469569E1,1.593246514E1,4.827848862E1
9.198714000E0,-2.077659329E1,-4.414954679E1,2.022242693E1,5.281851817E1
9.208784000E0,-2.406814769E1,-4.425606435E1,2.414240031E1,5.586349844E1
9.218854000E0,-2.693553102E1,-4.299048364E1,2.620986350E1,5.710220188E1
9.228924000E0,-2.719031994E1,-4.153742249E1,2.511061736E1,5.563464810E1
9.238994000E0,-2.502884756E1,-3.922859325E1,2.263366664E1,5.174561435E1
9.249064000E0,-2.105128846E1,-3.672936698E1,1.917999819E1,4.647661213E1
9.259134000E0,-1.641628949E1,-3.384793161E1,1.523592260E1,4.058707150E1
9.269204000E0,-1.159659920E1,-3.079084355E1,1.145425458E1,3.483901703E1
9.279274000E0,-6.358061741E0,-2.779131547E1,7.808998019E0,2.955947589E1
9.289344000E0,-8.923313016E-1,-2.530312641E1,4.527637074E0,2.572049686E1
9.299413000E0,4.884714839E0,-2.379100370E1,1.365757549E0,2.432565702E1
9.309483000E0,1.035292801E1,-2.330301145E1,-9.745248811E-1,2.551789881E1
9.319553000E0,1.646270469E1,-2.368550355E1,-9.473797671E-1,2.886037513E1
9.329623000E0,2.319574545E1,-2.506838643E1,8.125267482E-1,3.416323762E1
9.339693000E0,2.822509234E1,-2.650224065E1,3.697517223E0,3.889339572E1
9.349763000E0,3.122689615E1,-2.752301949E1,7.185189571E0,4.224053260E1
9.359833000E0,3.232011731E1,-2.866401241E1,1.072810407E1,4.451188389E1
9.369903000E0,3.190262378E1,-2.930450940E1,1.475426054E1,4.576264720E1
9.379973000E0,3.022280526E1,-2.854905615E1,1.687458256E1,4.486889904E1
9.390043000E0,2.777904802E1,-2.698368635E1,1.687824760E1,4.224535572E1
9.400113000E0,2.495594447E1,-2.516161911E1,1.498982264E1,3.847857876E1
9.410183000E0,2.193357016E1,-2.355721798E1,1.214977153E1,3.440408358E1
9.420253000E0,1.879102386E1,-2.218235047E1,9.646016006E0,3.063013018E1
9.430323000E0,1.568752177E1,-2.132484460E1,7.793430977E0,2.759682777E1
9.440393000E0,1.285038023E1,-2.098670714E1,6.375655428E0,2.542091915E1
9.450463000E0,1.021644815E1,-2.110082608E1,5.393728995E0,2.405645415E1
9.460533000E0,7.636851897E0,-2.159438019E1,5.045010409E0,2.345401656E1
9.470603000E0,5.553240454E0,-2.245067920E1,5.054123295E0,2.367309946E1
9.480673000E0,4.363113967E0,-2.336472063E1,5.929203556E0,2.449698733E1
9.490743000E0,3.582454544E0,-2.357964556E1,6.577429976E0,2.474057903E1
9.500813000E0,3.058538175E0,-2.302937111E1,6.675609405E0,2.417168489E1
9.510883000E0,2.908775194E0,-2.224287617E1,6.229596659E0,2.328120246E1
9.520953000E0,2.948373708E0,-2.130555113E1,4.988181320E0,2.207943317E1
9.531023000E0,3.255831417E0,-2.006620804E1,3.260592220E0,2.058845805E1
9.541093000E0,3.225453962E0,-1.845481130E1,1.285795413E0,1.877862837E1
9.551163000E0,2.769205080E0,-1.738512986E1,-4.622048557E-1,1.761036258E1
9.561233000E0,3.039049405E0,-1.689484667E1,-1.281260312E0,1.721375303E1
9.571303000E0,3.633158090E0,-1.637767448E1,-1.950397253E0,1.688881608E1
9.581373000E0,4.547901185E0,-1.555266393E1,-2.135945778E0,1.634414344E1
9.591443000E0,6.030203097E0,-1.495282497E1,-2.091549916E0,1.625807200E1
9.601513000E0,8.590148023E0,-1.513811973E1,-2.155785673E0,1.753854965E1
9.611583000E0,1.165281316E1,-1.481003363E1,-2.177580585E0,1.897016099E1
9.621653000E0,1.483526670E1,-1.451147480E1,-2.107908379E0,2.085932205E1
9.631723000E0,1.879091511E1,-1.552156960E1,-1.163708474E0,2.440024244E1
9.641793000E0,2.263332049E1,-1.731735244E1,1.838557413E0,2.855762919E1
9.651863000E0,2.730662807E1,-2.004442833E1,6.295301821E0,3.445376422E1
9.661933000E0,3.274461348E1,-2.245685386E1,1.057499590E1,4.108954289E1
9.672003000E0,3.845863423E1,-2.300743002E1,1.442146744E1,4.707852065E1
9.682073000E0,4.572365467E1,-2.105427990E1,1.693520182E1,5.311060496E1
9.692143000E0,5.460463501E1,-1.727203184E1,1.674428789E1,5.966875586E1
9.702213000E0,6.331019889E1,-1.181081662E1,1.578086906E1,6.630771072E1
9.712283000E0,6.875925658E1,-5.847103971E0,1.506627031E1,7.063297028E1
9.722353000E0,6.942480537E1,-1.089592384E0,1.601971730E1,7.125743579E1
9.732423000E0,6.638219501E1,1.315945703E0,1.759193301E1,6.868626963E1
9.742493000E0,6.165241970E1,1.424474704E0,1.874880346E1,6.445593544E1
9.752563000E0,5.651368076E1,2.001332349E-1,1.915553461E1,5.967219346E1
9.762632000E0,5.158470717E1,-1.118699239E0,1.877739985E1,5.490741523E1
9.772703000E0,4.674160346E1,-2.980909955E0,1.751310202E1,5.000372047E1
9.782772000E0,4.126660752E1,-5.342838923E0,1.567260786E1,4.446469905E1
9.792842000E0,3.547744771E1,-8.021777612E0,1.376093672E1,3.888909347E1
9.802912000E0,2.980673377E1,-1.050505385E1,1.202724780E1,3.381497041E1
9.812982000E0,2.463503524E1,-1.214019613E1,1.006353410E1,2.924968448E1
9.823052000E0,2.006792712E1,-1.399960252E1,7.197613735E0,2.550521933E1
9.833122000E0,1.647263093E1,-1.606573254E1,4.535084088E0,2.345255465E1
9.843192000E0,1.353254214E1,-1.809039996E1,2.257722230E0,2.270439555E1
9.853262000E0,1.131601120E1,-1.981727570E1,7.529868901E-1,2.283294801E1
9.863332000E0,9.658439586E0,-2.146013514E1,-3.330352572E-1,2.353579758E1
9.873402000E0,8.293656183E0,-2.281219383E1,-9.766067091E-1,2.429268781E1
9.883472000E0,7.080446059E0,-2.390252881E1,-1.300573958E0,2.496307458E1
9.893542000E0,6.225059804E0,-2.461309649E1,-1.484320956E0,2.543145881E1
9.903612000E0,5.708192253E0,-2.510851236E1,-1.545280518E0,2.579551790E1
9.913682000E0,5.772471280E0,-2.544712462E1,-1.434312644E0,2.613302181E1
9.923752000E0,6.681430308E0,-2.596875005E1,-8.022906125E-1,2.682650108E1
9.933822000E0,8.085194759E0,-2.611422644E1,4.884788076E-1,2.734157655E1
9.943892000E0,9.261819440E0,-2.614533830E1,1.494250113E0,2.777755925E1
9.953962000E0,1.085058219E1,-2.630562452E1,2.018664665E0,2.852711030E1
9.964032000E0,1.286352945E1,-2.630045090E1,2.304222651E0,2.936824049E1
9.974102000E0,1.511618448E1,-2.592455913E1,2.757726996E0,3.013613873E1
9.984172000E0,1.753541149E1,-2.580480582E1,2.994833637E0,3.134242632E1
9.994242000E0,2.027961270E1,-2.519813147E1,2.150622289E0,3.241656516E1
1.000431200E1,2.240791968E1,-2.436323795E1,8.862335327E-1,3.311295272E1
1.001438158E1,2.458725414E1,-2.350579757E1,4.159554264E-1,3.401806291E1