"Time (s)","Linear Acceleration x (m/s^2)","Linear Acceleration y (m/s^2)","Linear Acceleration z (m/s^2)","Absolute acceleration (m/s^2)"
1.029500039E-3,-5.755276957E-1,6.760579973E-1,4.981221087E-1,1.018043309E0
1.110050001E-2,-6.741336787E-1,4.515307635E-1,2.267075144E-1,8.424562565E-1
2.117050003E-2,-6.300784171E-1,-5.666185856E-1,-3.591608360E-1,9.203542466E-1
3.124050004E-2,-1.907183406E-1,-1.345932564E0,-6.422977822E-1,1.503480759E0
4.131050000E-2,-5.747406605E-1,-7.239086866E-2,9.757365704E-2,5.874418126E-1
5.138050002E-2,-7.476764488E-1,-6.234301329E-3,-1.989949282E-1,7.737298754E-1
6.145150005E-2,-6.203834412E-1,-2.051787972E-2,-2.258438806E-1,6.605316464E-1
7.152150001E-2,-4.915204561E-1,-1.108924448E-1,-4.140749618E-2,5.055730153E-1
8.159150003E-2,-4.109633660E-1,-2.232770991E-1,3.442138910E-2,4.689652261E-1
9.166150005E-2,-3.416080794E-1,-3.418223798E-2,-5.238959044E-3,3.433539748E-1
1.017315000E-1,-3.034038341E-1,8.662649989E-2,-7.727563262E-2,3.248531367E-1
1.118015000E-1,-3.173769253E-1,3.651264578E-1,-1.005392186E-1,4.941189912E-1
1.218724167E-1,-3.888170367E-1,-2.262311125E-1,-4.937492685E-1,6.679427704E-1
1.319424167E-1,-3.119931015E-1,1.292141104E-1,-3.858938675E-1,5.127865625E-1
1.420124167E-1,-2.496819556E-1,2.698367232E-1,-3.312177233E-1,4.948314020E-1
1.520824167E-1,-7.077586770E-2,-1.016091129E0,-7.988675062E-1,1.294465024E0
1.621524167E-1,-1.087628889E-1,-4.254194373E-1,-5.650959706E-1,7.156427319E-1
1.722234167E-1,-2.634080020E-1,-4.838103175E-2,-4.374218707E-1,5.128960837E-1
1.822934167E-1,-2.006703016E-1,3.594224989E-2,-4.567948656E-1,5.002219153E-1
1.923634167E-1,-3.047685742E-2,1.283797127E-1,-3.835314462E-1,4.055940824E-1
2.024334167E-1,1.031858146E-2,1.071782935E-1,-3.446957016E-1,3.611215674E-1
2.125034167E-1,8.571433425E-2,1.799498159E-1,-2.429145344E-1,3.142234147E-1
2.225744167E-1,1.410412735E-1,2.646391332E-1,-3.483667298E-1,4.596584494E-1
2.326444167E-1,3.823494315E-3,7.363153088E-1,-2.971122301E-1,7.940091500E-1
2.427144167E-1,9.170276016E-2,-1.804748958E-1,-7.905305462E-1,8.160386809E-1
2.527844167E-1,4.160150680E-1,7.127995616E-1,-4.125945930E-1,9.227058307E-1
2.628544167E-1,-2.244611603E-1,4.639596051E-1,-3.260840142E-1,6.098951647E-1
2.729244167E-1,4.154695228E-1,-1.811199022E0,-1.673335125E0,2.500621375E0
2.829954167E-1,2.795822775E-1,2.657694000E-1,-4.596977158E-1,6.001013363E-1
2.930654167E-1,-1.645929810E-1,2.150021195E-2,-5.568094428E-1,5.810248395E-1
3.031354167E-1,2.043777287E-2,1.820296705E-2,-8.076010537E-1,8.080646710E-1
3.132054167E-1,1.887978226E-2,1.495361084E-1,-4.063383646E-1,4.333916940E-1
3.232754167E-1,6.151563227E-3,-3.427930176E-2,-3.097607808E-1,3.117124533E-1
3.333464167E-1,9.079907298E-2,1.178219801E-1,-2.831805079E-1,3.198713658E-1
3.434164167E-1,2.286530292E-1,1.016240233E-1,-2.090799133E-1,3.260737034E-1
3.534864167E-1,2.738838735E-1,1.254508424E-1,-2.200096750E-1,3.730342439E-1
3.635564167E-1,3.091370291E-1,1.803579515E-1,-1.883003707E-1,4.044152853E-1
3.736264167E-1,3.485054550E-1,1.697294676E-1,-2.649771023E-1,4.695497940E-1
3.836974167E-1,2.950233123E-1,1.696949691E-1,-3.450500429E-1,4.846593333E-1
3.937674167E-1,2.744378972E-1,1.995087522E-1,-3.627238369E-1,4.966774441E-1
4.038374167E-1,3.130523247E-1,1.918477303E-1,-3.631308031E-1,5.164022558E-1
4.139074167E-1,3.424579722E-1,1.679279405E-1,-2.642168181E-1,4.639911452E-1
4.239774167E-1,3.456914824E-1,1.761532187E-1,-1.115451403E-1,4.037014687E-1
4.340474167E-1,3.351822817E-1,1.401905036E-1,-5.599279091E-2,3.676081228E-1
4.441184167E-1,3.365861982E-1,1.207181060E-1,8.610375881E-2,3.678002002E-1
4.541884167E-1,2.919321817E-1,1.247023988E-1,1.912543841E-1,3.706120970E-1
4.642584167E-1,3.022425771E-1,1.122624475E-1,2.067448278E-1,3.830102562E-1
4.743284167E-1,2.960079834E-1,9.656676650E-2,2.625132318E-1,4.072579815E-1
4.843984167E-1,2.796848962E-1,4.064808905E-2,2.487522483E-1,3.765017786E-1
4.944694167E-1,3.445422122E-1,-6.078414559E-2,2.935522990E-1,4.567023107E-1
5.045394167E-1,3.753903678E-1,-8.476708531E-2,3.924909885E-1,5.496840575E-1
5.146094167E-1,3.523146236E-1,-9.618669748E-2,4.309783852E-1,5.649069333E-1
5.246794167E-1,4.099301630E-1,-1.877155030E-1,4.043934345E-1,6.056516313E-1
5.347494167E-1,4.884647012E-1,-3.236661905E-1,3.825866823E-1,6.998072139E-1
5.448204167E-1,5.345413452E-1,-3.943637055E-1,3.674649055E-1,7.591361135E-1
5.548904167E-1,5.556860465E-1,-4.551607150E-1,3.718737061E-1,8.088561751E-1
5.649604167E-1,5.723851097E-1,-5.560093975E-1,3.663922338E-1,8.780742753E-1
5.750304167E-1,5.399874419E-1,-5.890280396E-1,3.571127026E-1,8.752542209E-1
5.851004167E-1,5.966218185E-1,-7.486412394E-1,4.432918905E-1,1.054954501E0
5.951714167E-1,5.641457981E-1,-9.589989156E-1,6.229573855E-1,1.275153052E0
6.052414167E-1,5.509299213E-1,-1.057720381E0,8.883301981E-1,1.487086656E0
6.153114167E-1,5.509597421E-1,-1.045975664E0,1.178369782E0,1.669184552E0
6.253814167E-1,4.615832967E-1,-9.472278857E-1,1.478613781E0,1.815653745E0
6.354514167E-1,3.545786655E-1,-8.914109498E-1,1.756440724E0,2.001355423E0
6.455214167E-1,1.732421824E-1,-8.530245638E-1,2.048027336E0,2.225326881E0
6.555924167E-1,-4.857340515E-2,-6.456729412E-1,2.314860052E0,2.403711710E0
6.656624167E-1,-2.902201170E-1,-5.205588984E-1,2.391388557E0,2.464538194E0
6.757324167E-1,-5.181673872E-1,-4.268718857E-1,2.469853367E0,2.559471176E0
6.858024167E-1,-8.001908773E-1,-1.724431604E-1,2.687658641E0,2.809546415E0
6.958724167E-1,-1.159392936E0,1.047616392E-1,2.584630702E0,2.834692725E0
7.059434167E-1,-1.465953682E0,2.859083802E-1,2.265959934E0,2.713915662E0
7.160134167E-1,-1.918194882E0,6.039513034E-1,1.978027394E0,2.820783783E0
7.260834167E-1,-2.520706601E0,9.901084417E-1,1.530480630E0,3.110731016E0
7.361534167E-1,-3.122165821E0,1.537645808E0,1.238961554E0,3.694225194E0
7.462234167E-1,-3.863209189E0,2.149546402E0,6.271013072E-1,4.465220153E0
7.562944167E-1,-4.594239784E0,2.663774520E0,-2.788040131E-2,5.310697807E0
7.663644167E-1,-5.429919752E0,3.216828150E0,-9.245710945E-1,6.378623955E0
7.764344167E-1,-5.999284775E0,3.749744554E0,-2.583057216E0,7.531546097E0
7.865044167E-1,-6.251773394E0,4.535112154E0,-4.538896472E0,8.958431448E0
7.965744167E-1,-5.861760601E0,5.503485326E0,-6.499145114E0,1.033863992E1
8.066454167E-1,-4.928263732E0,5.979825826E0,-8.958423207E0,1.184480674E1
8.167154167E-1,-4.018332312E0,5.696032383E0,-1.101059710E1,1.303169321E1
8.267854167E-1,-3.051149048E0,5.454463440E0,-1.246738878E1,1.394619894E1
8.368554167E-1,-1.478067359E0,4.997151534E0,-1.411459386E1,1.504586211E1
8.469254167E-1,1.132342547E-1,3.533954229E0,-1.615460554E1,1.653701711E1
8.569954167E-1,1.735698019E0,1.212615463E0,-1.765089517E1,1.777743469E1
8.670664167E-1,4.108921469E0,-1.605675824E0,-1.901952136E1,1.952443657E1
8.771364167E-1,7.078600677E0,-3.913706328E0,-1.992717997E1,2.150618948E1
8.872064167E-1,1.051961107E1,-5.064130805E0,-2.024884933E1,2.337356492E1
8.972764167E-1,1.510718445E1,-5.216994563E0,-2.115172726E1,2.651112257E1
9.073464167E-1,2.167711596E1,-5.509253020E0,-2.282501794E1,3.195669991E1
9.174174167E-1,2.935094564E1,-5.901235154E0,-2.477414752E1,3.885950298E1
9.274874167E-1,3.413438437E1,-6.480505945E0,-2.566639287E1,4.319625998E1
9.375574167E-1,3.536790363E1,-8.156710884E0,-2.443376706E1,4.375419423E1
9.476274167E-1,3.554775229E1,-9.863831806E0,-2.215101407E1,4.303028346E1
9.576974167E-1,3.696637334E1,-1.119772320E1,-1.941175025E1,4.322866885E1
9.677684167E-1,3.995778080E1,-1.261401122E1,-1.581759074E1,4.478765123E1
9.778384167E-1,4.209994802E1,-1.343162153E1,-1.219119905E1,4.584145956E1
9.879084167E-1,4.210266113E1,-1.325348377E1,-8.634631301E0,4.497605767E1
9.979784167E-1,4.049090654E1,-1.274025728E1,-5.811162305E0,4.284387092E1
1.008048417E0,3.756453883E1,-1.234752553E1,-3.410879695E0,3.968866418E1
1.018119417E0,3.449194161E1,-1.277018099E1,-1.695294929E0,3.681909265E1
1.028189417E0,3.108030879E1,-1.382189979E1,-2.180853564E-1,3.401585027E1
1.038259417E0,2.691949094E1,-1.564214738E1,1.092834665E0,3.115333136E1
1.048329417E0,2.242032747E1,-1.750712967E1,1.585560817E0,2.849008032E1
1.058399417E0,1.809002691E1,-1.911124897E1,1.284871845E0,2.634653310E1
1.068470417E0,1.493916354E1,-2.068199002E1,9.966602468E-1,2.553265850E1
1.078540417E0,1.374078838E1,-2.194177029E1,1.263314331E0,2.592000216E1
1.088610417E0,1.316823604E1,-2.313946717E1,1.136373033E0,2.664824056E1
1.098680417E0,1.307525596E1,-2.393575503E1,1.444617777E0,2.731244419E1
1.108750417E0,1.383860879E1,-2.452637527E1,2.198798084E0,2.824685628E1
1.118821667E0,1.531433610E1,-2.451341784E1,2.462839047E0,2.900865595E1
1.128891667E0,1.676652485E1,-2.460031915E1,1.406599765E0,2.980386856E1
1.138961667E0,1.811182065E1,-2.445984798E1,1.570517101E0,3.047603542E1
1.149031667E0,1.959228069E1,-2.371864323E1,1.991012013E0,3.082848729E1
1.159101667E0,2.196456742E1,-2.292074388E1,1.386778289E0,3.177618410E1
1.169172667E0,2.527921364E1,-2.164533517E1,7.666138262E-1,3.328884007E1
1.179242667E0,2.884094682E1,-2.024759803E1,1.279781844E0,3.526192395E1
1.189312667E0,3.234489314E1,-1.883524168E1,1.843589673E0,3.747475502E1
1.199382667E0,3.526542299E1,-1.777674245E1,1.763326113E0,3.953191052E1
1.209452667E0,3.700636830E1,-1.706992634E1,1.683770944E0,4.078834104E1
1.219522667E0,3.800625855E1,-1.594074831E1,1.838536509E0,4.125485865E1
1.229593667E0,3.775549720E1,-1.492349768E1,7.155063839E-1,4.060419068E1
1.239663667E0,3.656734765E1,-1.403342983E1,-7.253002509E-1,3.917440654E1
1.249733667E0,3.465172496E1,-1.308764036E1,-2.191667404E0,3.710568392E1
1.259803667E0,3.251312922E1,-1.260365229E1,-2.972905701E0,3.499705404E1
1.269873667E0,3.086741167E1,-1.233441023E1,-3.098394551E0,3.338464958E1
1.279944667E0,2.921349164E1,-1.239642346E1,-2.942235886E0,3.187092970E1
1.290014667E0,2.692819394E1,-1.270115344E1,-1.287869128E0,2.980109955E1
1.300084667E0,2.402044376E1,-1.316389156E1,4.511175115E-1,2.739476714E1
1.310154667E0,2.042694850E1,-1.394148704E1,2.270943954E0,2.483510565E1
1.320224667E0,1.696627626E1,-1.397083305E1,3.649099354E0,2.227901776E1
1.330295667E0,1.323791380E1,-1.436069966E1,3.493167561E0,1.984122668E1
1.340365667E0,8.663797213E0,-1.551559843E1,2.535807620E0,1.795064057E1
1.350435667E0,2.702222886E0,-1.774746661E1,1.250925835E0,1.799553820E1
1.360505667E0,-2.994125832E0,-2.009287836E1,1.867424971E0,2.040038790E1
1.370575667E0,-6.404160020E0,-2.405996860E1,1.105291866E0,2.492221950E1
1.380646667E0,-1.005394935E1,-2.886670731E1,2.449142821E0,3.066540378E1
1.390716667E0,-1.284860736E1,-3.143295203E1,5.397206919E0,3.438381926E1
1.400786667E0,-1.483471589E1,-3.435514717E1,9.240248476E0,3.854513101E1
1.410856667E0,-1.684612767E1,-3.726161330E1,1.368455571E1,4.312176838E1
1.420926667E0,-1.859548830E1,-3.784012980E1,1.687560933E1,4.541424664E1
1.430996667E0,-1.998863186E1,-3.735807364E1,1.729180947E1,4.576218684E1
1.441067667E0,-2.007118052E1,-3.627133353E1,1.613631896E1,4.448418498E1
1.451137667E0,-1.895015350E1,-3.482938910E1,1.473209375E1,4.229928190E1
1.461207667E0,-1.752183425E1,-3.308130551E1,1.413653963E1,4.001536208E1
1.471277667E0,-1.516820599E1,-3.145309685E1,1.331477078E1,3.737184630E1
1.481347667E0,-1.217634128E1,-2.955953454E1,1.189436515E1,3.411019336E1
1.491418667E0,-7.577561715E0,-2.798509220E1,1.009575811E1,3.070031203E1
1.501488667E0,-1.638375208E0,-2.682842173E1,7.821368973E0,2.799325452E1
1.511558667E0,4.415302121E0,-2.674340555E1,6.212638564E0,2.780829932E1
1.521628667E0,1.123544359E1,-2.754517108E1,5.197216941E0,3.019905142E1
1.531698667E0,1.835349192E1,-2.803238448E1,4.071624127E0,3.375267943E1
1.541769667E0,2.379402086E1,-2.820359797E1,3.381005101E0,3.705441354E1
1.551839667E0,2.659720879E1,-2.887623593E1,4.397316963E0,3.950423918E1
1.561909667E0,2.702713584E1,-3.070490351E1,8.304159536E0,4.173986389E1
1.571979667E0,2.724887630E1,-3.280640919E1,1.446260728E1,4.503252994E1
1.582049667E0,2.676772763E1,-3.346869056E1,1.913759301E1,4.693518890E1
1.592119667E0,2.551371271E1,-3.330476738E1,2.040378417E1,4.665266847E1
1.602190667E0,2.405640180E1,-3.188902081E1,1.893546412E1,4.420601676E1
1.612260667E0,2.271737070E1,-3.029404306E1,1.562239548E1,4.096177751E1
1.622330667E0,2.196038783E1,-2.887664758E1,1.237000223E1,3.832931468E1
1.632400667E0,2.164047964E1,-2.808827685E1,1.000188106E1,3.684154286E1
1.642470667E0,2.054820572E1,-2.828395743E1,8.921843026E0,3.608060821E1
1.652541667E0,1.789541403E1,-2.992653386E1,1.042584980E1,3.639425252E1
1.662611667E0,1.422165872E1,-3.260973224E1,1.503567885E1,3.862281518E1
1.672681667E0,1.135584711E1,-3.483929896E1,2.112377990E1,4.229593471E1
1.682751667E0,1.022568090E1,-3.519324028E1,2.518692352E1,4.446920089E1
1.692821667E0,9.884736772E0,-3.375856979E1,2.445480768E1,4.284141307E1
1.702892667E0,1.037736352E1,-3.167006364E1,1.935127483E1,3.853770157E1
1.712962667E0,1.225624114E1,-2.886285049E1,1.302767600E1,3.395585262E1
1.723032667E0,1.517630322E1,-2.593597758E1,7.003612475E0,3.085523780E1
1.733102667E0,1.696743401E1,-2.237175348E1,2.900388533E0,2.822767125E1
1.743172667E0,1.478907721E1,-1.967586196E1,1.653311920E0,2.466961266E1
1.753243667E0,1.132702268E1,-1.845710575E1,1.086335485E0,2.168285775E1
1.763313667E0,1.047277722E1,-1.778694233E1,8.770823479E-2,2.064127111E1
1.773383667E0,1.318305523E1,-1.745133554E1,6.115860128E-1,2.187958169E1
1.783453667E0,2.177384294E1,-1.701362350E1,1.867238152E0,2.769567113E1
1.793523667E0,3.420799146E1,-1.599859014E1,4.748005768E0,3.806159646E1
1.803593667E0,4.619956657E1,-1.284653276E1,5.946220708E0,4.831967400E1
1.813664667E0,5.481697314E1,-1.319589571E1,6.464699167E0,5.675230871E1
1.823734667E0,5.881808716E1,-1.347966810E1,8.858578491E0,6.098969784E1
1.833804667E0,6.067785257E1,-1.201281220E1,1.207379515E1,6.302290043E1
1.843874667E0,6.302736205E1,-7.750229409E0,1.419631338E1,6.506957612E1
1.853945667E0,6.736085519E1,-3.521511354E0,1.463570006E1,6.902238456E1
1.864015667E0,7.057476558E1,5.862085122E-1,1.317490070E1,7.179637307E1
1.874085667E0,7.059887014E1,5.523712599E0,8.849021802E0,7.136537713E1
1.884155667E0,7.059887950E1,9.830475780E0,1.563554821E0,7.129715804E1
1.894225667E0,7.045331657E1,1.210602617E1,-6.007388431E0,7.173781710E1
1.904296667E0,6.657137349E1,1.180924723E1,-1.061423423E1,6.843879059E1
1.914366667E0,5.514423479E1,1.032696754E1,-1.141972210E1,5.725332254E1
1.924436667E0,4.382121394E1,7.286908904E0,-8.843924199E0,4.529473289E1
1.934506667E0,3.501589423E1,2.995749604E0,-4.726181620E0,3.546017706E1
1.944576667E0,2.912926133E1,-1.199076527E0,-1.100802520E0,2.917470507E1
1.954647667E0,2.531477406E1,-5.343706650E0,1.796588730E0,2.593493238E1
1.964717667E0,2.190436214E1,-9.346442683E0,2.648958260E0,2.396192921E1
1.974787667E0,1.891574497E1,-1.327702817E1,3.221343369E0,2.333370819E1
1.984857667E0,1.652210305E1,-1.684290469E1,3.931181316E0,2.391897811E1
1.994927667E0,1.457204610E1,-2.034992430E1,3.628018388E0,2.529083755E1
2.004998667E0,1.333091962E1,-2.319090863E1,3.663343756E0,2.699910644E1
2.015068667E0,1.252803376E1,-2.528829085E1,3.270648554E0,2.841032253E1
2.025138667E0,1.234567781E1,-2.726373758E1,2.897364353E0,3.006861932E1
2.035208667E0,1.276111547E1,-2.811386894E1,4.880441694E0,3.125786950E1
2.045278667E0,1.271822380E1,-2.857190005E1,6.121255939E0,3.186811045E1
2.055348667E0,1.298421013E1,-2.917559466E1,7.449888346E0,3.279185681E1
2.065419667E0,1.365133417E1,-2.876262219E1,9.002682536E0,3.308618523E1
2.075489667E0,1.433573322E1,-2.807699172E1,9.062027682E0,3.280169289E1
2.085559667E0,1.543062318E1,-2.716128968E1,8.577458396E0,3.239463816E1
2.095629667E0,1.642598886E1,-2.560567538E1,8.071843811E0,3.147409068E1
2.105699667E0,1.819766128E1,-2.407295877E1,7.236267924E0,3.103265689E1
2.115770667E0,2.028776138E1,-2.239550019E1,6.096705235E0,3.082728508E1
2.125840750E0,2.170409267E1,-2.100832078E1,5.495652981E0,3.070210713E1
2.135910750E0,2.361182630E1,-1.926469277E1,4.943679332E0,3.087210220E1
2.145980750E0,2.619971741E1,-1.716649428E1,2.192705577E0,3.139938974E1
2.156050750E0,2.856543069E1,-1.535554844E1,-7.073262754E-1,3.243881948E1
2.166121750E0,3.025617883E1,-1.383262475E1,-2.692393717E0,3.337704074E1
2.176191750E0,3.156728830E1,-1.286272838E1,-4.276802925E0,3.435454141E1
2.186261750E0,3.223156006E1,-1.248047718E1,-5.830038872E0,3.505174929E1
2.196331750E0,3.171380549E1,-1.273592332E1,-6.411108266E0,3.477170561E1
2.206401750E0,3.068056506E1,-1.303777063E1,-5.048861386E0,3.371604272E1
2.216472750E0,2.852498199E1,-1.305582683E1,-3.630807509E0,3.158024660E1
2.226542750E0,2.576478046E1,-1.327867124E1,-1.863399455E0,2.904512488E1
2.236612750E0,2.225268078E1,-1.384455658E1,-5.000340752E-1,2.621266074E1
2.246682750E0,1.793006580E1,-1.493123354E1,4.748253398E-1,2.333783310E1
2.256752750E0,1.257953837E1,-1.709717320E1,7.818177563E-1,2.124074754E1
2.266823750E0,7.525831983E0,-2.111360107E1,1.565712444E0,2.246939591E1
2.276893750E0,3.322764494E0,-2.609758994E1,4.981294470E0,2.677570277E1
2.286963750E0,-1.318318503E0,-3.041281872E1,1.137170476E1,3.249604861E1
2.297033750E0,-5.832151471E0,-3.768614922E1,1.875863263E1,4.249877800E1
2.307103750E0,-1.184436327E1,-4.397898118E1,2.490056198E1,5.190835880E1
2.317173750E0,-1.866390890E1,-4.600673007E1,2.950786386E1,5.775530051E1
2.327244750E0,-2.473781994E1,-4.471045382E1,3.193853270E1,6.025823004E1
2.337314750E0,-2.734913499E1,-4.337368209E1,3.086109901E1,5.984696246E1
2.347384750E0,-2.583559024E1,-4.099905765E1,2.801697122E1,5.597634435E1
2.357454750E0,-2.143204745E1,-3.857765080E1,2.406926333E1,5.026825277E1
2.367524750E0,-1.586694358E1,-3.588201656E1,1.897048661E1,4.357933424E1
2.377595750E0,-1.023300395E1,-3.331443166E1,1.289054943E1,3.715820221E1
2.387665750E0,-4.541245884E0,-3.103158979E1,7.171572576E0,3.217163241E1
2.397735750E0,2.493010095E0,-2.939190188E1,1.825751280E0,2.955388914E1
2.407805750E0,1.040275096E1,-2.880428244E1,-1.974920475E0,3.068882900E1
2.417875750E0,1.786366482E1,-2.972462249E1,-1.962022102E0,3.473489936E1
2.427946750E0,2.406545563E1,-3.166531336E1,1.435877651E0,3.979824078E1
2.438016750E0,2.919434318E1,-3.347828233E1,8.410706331E0,4.520890446E1
2.448086750E0,3.246092762E1,-3.346843796E1,1.609337350E1,4.932387690E1
2.458156750E0,3.301194116E1,-3.148571496E1,2.001197863E1,4.981583879E1
2.468226750E0,3.036873539E1,-2.809992684E1,1.980655425E1,4.587118451E1
2.478297750E0,2.584363133E1,-2.439032927E1,1.665853730E1,3.924650694E1
2.488367750E0,2.141020459E1,-2.142597570E1,1.300185352E1,3.296236476E1
2.498437750E0,1.777293357E1,-1.975880354E1,9.786520506E0,2.832072508E1
2.508507750E0,1.445138647E1,-1.880224584E1,8.190220692E0,2.508877706E1
2.518577750E0,1.147784810E1,-1.850888402E1,7.898094968E0,2.316677985E1
2.528648750E0,8.483086674E0,-1.907419399E1,7.843660313E0,2.230046285E1
2.538718750E0,5.829444795E0,-2.015837887E1,7.885401832E0,2.241700755E1
2.548788750E0,3.395541279E0,-2.102523093E1,8.406798052E0,2.289681833E1
2.558858750E0,1.091768133E0,-2.200089734E1,9.315862330E0,2.391687129E1
2.568928750E0,7.024903357E-2,-2.316660994E1,1.000906729E1,2.523644545E1
2.578998750E0,-1.728863794E-1,-2.383272709E1,9.689622202E0,2.572775833E1
2.589069750E0,-2.373501778E-1,-2.375862416E1,8.869296438E0,2.536124950E1
2.599139750E0,-4.946259123E-1,-2.323534747E1,7.520583522E0,2.442714071E1
2.609209750E0,-7.559841728E-1,-2.282259018E1,6.416571904E0,2.371949682E1
2.619279750E0,-6.996871805E-1,-2.268177052E1,5.636562107E0,2.338211086E1
2.629349750E0,4.149616921E-1,-2.277587327E1,4.501922189E0,2.322024762E1
2.639420750E0,1.928193621E0,-2.300565715E1,3.210943512E0,2.330854671E1
2.649490750E0,3.822426614E0,-2.318573502E1,2.630476965E0,2.364547869E1
2.659560750E0,5.944218037E0,-2.339932445E1,3.034262289E0,2.433246515E1
2.669630750E0,7.573965678E0,-2.343630926E1,4.689024319E0,2.507214583E1
2.679700750E0,9.649298633E0,-2.256026070E1,6.732530880E0,2.544408180E1
2.689771750E0,1.315179250E1,-2.117157738E1,8.145761388E0,2.622134176E1
2.699841750E0,1.915651694E1,-2.010016399E1,7.814891428E0,2.884547212E1
2.709911750E0,2.617571108E1,-1.991975634E1,6.006788507E0,3.343719563E1
2.719981750E0,3.349205604E1,-1.986236475E1,4.093253855E0,3.915336611E1
2.730051750E0,4.062649645E1,-1.903696594E1,2.350018190E0,4.492706169E1
2.740122750E0,4.785785096E1,-1.636594965E1,2.351538466E0,5.063346660E1
2.750192750E0,5.774318649E1,-1.246891139E1,3.304378510E0,5.916644534E1
2.760262750E0,6.864506747E1,-7.515109359E0,3.706264658E0,6.915459894E1
2.770332750E0,7.117592016E1,-1.726160041E0,3.942529593E0,7.130592387E1
2.780402750E0,7.111014600E1,3.207215912E0,2.749519844E0,7.123551753E1
2.790473750E0,7.132364422E1,6.700979889E0,3.134582676E-2,7.163774381E1
2.800543750E0,7.130231825E1,8.343241156E0,-1.507988731E0,7.180462584E1
2.810613750E0,7.092414373E1,7.421189627E0,-2.715461567E-2,7.131135223E1
2.820683750E0,6.516648871E1,4.629745831E0,4.677075534E0,6.549794526E1
2.830754750E0,5.466663889E1,1.464347452E0,8.455365025E0,5.533605442E1
2.840824750E0,4.585637243E1,-1.035055988E0,8.638257744E0,4.667437981E1
2.850894750E0,3.870672224E1,-4.189661285E0,6.311768750E0,3.944112109E1
2.860964750E0,3.228406338E1,-7.771978127E0,3.580178808E0,3.339883340E1
2.871034750E0,2.655142041E1,-1.183284659E1,2.450561063E0,2.917189459E1
2.881105750E0,2.155619554E1,-1.591518896E1,2.572073221E0,2.691799335E1
2.891175750E0,1.741156044E1,-1.953300162E1,2.922545972E0,2.632948659E1
2.901245750E0,1.445045559E1,-2.248422818E1,2.764477022E0,2.687003009E1
2.911315750E0,1.303719292E1,-2.498980687E1,2.944092084E0,2.833948702E1
2.921385750E0,1.220532826E1,-2.695550044E1,3.625435380E0,2.981128685E1
2.931455750E0,1.203599758E1,-2.873174890E1,4.830681597E0,3.152323139E1
2.941526750E0,1.246792204E1,-2.976114186E1,5.626095006E0,3.275404692E1
2.951596750E0,1.325665764E1,-3.008251886E1,5.768509791E0,3.337622834E1
2.961666750E0,1.463586612E1,-3.026379658E1,5.354122295E0,3.404074891E1
2.971736750E0,1.613166575E1,-3.000147645E1,4.645962499E0,3.437883356E1
2.981806750E0,1.779393560E1,-2.971029213E1,3.701904974E0,3.482857596E1
2.991877750E0,1.890023816E1,-2.909638360E1,3.147736865E0,3.483858190E1
3.001947750E0,1.990703748E1,-2.890688938E1,3.182035462E0,3.524235725E1
3.012017750E0,2.156018801E1,-2.814587426E1,3.899087119E0,3.566840094E1
3.022087750E0,2.332976363E1,-2.693032934E1,4.070400597E0,3.586207845E1
3.032157750E0,2.498674760E1,-2.591697880E1,2.868534656E0,3.611448237E1
3.042228750E0,2.708259785E1,-2.441341408E1,5.736177027E-1,3.646657278E1
3.052298750E0,2.860442461E1,-2.286510178E1,-2.037186890E0,3.667664266E1
3.062368750E0,2.941475514E1,-2.184556722E1,-3.651298200E0,3.682103483E1
3.072438750E0,2.967378679E1,-2.070496256E1,-4.847238865E0,3.650650383E1
3.082508750E0,2.942746933E1,-1.967969773E1,-6.307200905E0,3.595896602E1
3.092579750E0,2.923918664E1,-1.855339068E1,-7.207082716E0,3.537089740E1
3.102649750E0,2.866606595E1,-1.736227543E1,-8.296093887E0,3.452560092E1
3.112719750E0,2.779677677E1,-1.653847057E1,-8.656419196E0,3.348306141E1
3.122788917E0,2.639250712E1,-1.587859708E1,-7.986778518E0,3.181953659E1
3.132858917E0,2.467368534E1,-1.527698408E1,-6.702826440E0,2.978430582E1
3.142929917E0,2.244814852E1,-1.495636488E1,-4.480554709E0,2.734387670E1
3.152999917E0,2.025651854E1,-1.499500094E1,-1.095623202E0,2.522651357E1
3.163069917E0,1.729956989E1,-1.531599554E1,1.127365397E0,2.313278605E1
3.173139917E0,1.344412171E1,-1.737102988E1,2.906173768E0,2.215723209E1
3.183209917E0,9.000040179E0,-2.227663098E1,3.922182451E0,2.434404498E1
3.193280917E0,3.383603604E0,-2.836293694E1,6.716643995E0,2.934311285E1
3.203350917E0,-2.463505629E0,-3.309596799E1,1.447514254E1,3.620692901E1
3.213420917E0,-5.247831609E0,-3.610234666E1,2.359710769E1,4.344816063E1
3.223490917E0,-6.169018920E0,-4.025445449E1,3.283095346E1,5.231012719E1
3.233560917E0,-1.056392361E1,-4.132729227E1,4.009588268E1,5.854247498E1
3.243630917E0,-1.683560385E1,-4.025974038E1,4.421003039E1,6.211932903E1
3.253701917E0,-2.089195184E1,-3.910456679E1,4.405813844E1,6.250408273E1
3.263771917E0,-2.132465983E1,-3.749405415E1,4.095614376E1,5.948067691E1
3.273841917E0,-1.936510233E1,-3.510897956E1,3.604025858E1,5.391240927E1
3.283911917E0,-1.602361856E1,-3.263494076E1,2.962587237E1,4.689869960E1
3.293981917E0,-1.171708576E1,-3.025246701E1,2.281418656E1,3.966092495E1
3.304052917E0,-6.772512971E0,-2.834405043E1,1.686585150E1,3.367059657E1
3.314122917E0,-6.447373867E-1,-2.737060363E1,1.148685281E1,2.969029163E1
3.324192917E0,6.111514478E0,-2.755338291E1,6.745739740E0,2.901800344E1
3.334262917E0,1.293564082E1,-2.917923865E1,3.656731432E0,3.212678721E1
3.344332917E0,2.101572336E1,-3.094433530E1,2.519656441E0,3.749081466E1
3.354403917E0,2.819053997E1,-3.209315647E1,2.799754736E0,4.280789486E1
3.364473917E0,3.306743124E1,-3.291504110E1,5.849943379E0,4.702208818E1
3.374543917E0,3.505550327E1,-3.246650353E1,1.256845205E1,4.940575015E1
3.384613917E0,3.532607265E1,-3.172912052E1,1.737075155E1,5.056096822E1
3.394683917E0,3.403254926E1,-3.106765074E1,1.916250215E1,4.990605996E1
3.404754917E0,3.091169146E1,-2.866665301E1,1.910057897E1,4.628327755E1
3.414824917E0,2.704986514E1,-2.640897756E1,1.635151170E1,4.118860564E1
3.424894917E0,2.297157490E1,-2.420829609E1,1.320393680E1,3.588981471E1
3.434964917E0,1.872606948E1,-2.233226139E1,1.081653035E1,3.108686066E1
3.445034917E0,1.451050650E1,-2.115749495E1,9.667644272E0,2.741637717E1
3.455105917E0,1.070951578E1,-2.061367115E1,9.277218667E0,2.501367531E1
3.465175917E0,7.422745571E0,-2.057190332E1,8.473633481E0,2.345427088E1
3.475245917E0,4.832807937E0,-2.124925180E1,7.442243112E0,2.302767285E1
3.485315917E0,2.738300791E0,-2.196793775E1,7.182722046E0,2.327402149E1
3.495385917E0,1.806279759E0,-2.266575616E1,8.225240836E0,2.417961405E1
3.505456917E0,2.056740564E0,-2.304725892E1,9.045171329E0,2.484394191E1
3.515526917E0,2.738993686E0,-2.232916236E1,9.549341651E0,2.443938428E1
3.525596917E0,3.710418520E0,-2.097336379E1,8.461539685E0,2.291826451E1
3.535666917E0,4.424834837E0,-2.040332341E1,5.602681586E0,2.161630890E1
3.545736917E0,3.800667955E0,-1.902678243E1,3.307703236E0,1.968259199E1
3.555806917E0,2.416920277E0,-1.787266953E1,6.002190256E-1,1.804533410E1
3.565877917E0,1.413298920E0,-1.747818362E1,-1.695815331E0,1.761704022E1
3.575947917E0,1.076008717E0,-1.791660434E1,-2.435294129E0,1.811334213E1
3.586017917E0,2.119057850E0,-1.988620502E1,-1.323855378E0,2.004255845E1
3.596087917E0,5.277510906E0,-2.206325672E1,1.361361612E0,2.272647628E1
3.606157917E0,1.072026413E1,-2.251541255E1,4.036818284E0,2.526190348E1
3.616228917E0,1.695619917E1,-2.124960731E1,4.607967292E0,2.757339050E1
3.626298917E0,2.272354302E1,-1.902206841E1,3.456304375E0,2.983529008E1
3.636368917E0,2.756810854E1,-1.816586413E1,1.889044904E0,3.306913544E1
3.646438917E0,3.262048878E1,-1.918314750E1,4.335603695E-1,3.784544109E1
3.656508917E0,3.769563340E1,-1.980340143E1,3.152093625E-1,4.258209533E1
3.666579917E0,4.311278868E1,-1.842595529E1,9.991605163E-1,4.689591345E1
3.676649917E0,4.957451396E1,-1.569825843E1,2.907705739E0,5.208188269E1
3.686719917E0,5.671422622E1,-1.332172545E1,5.187816957E0,5.848833448E1
3.696789917E0,6.327307609E1,-1.088806518E1,7.303565283E0,6.461713540E1
3.706859917E0,6.870306717E1,-7.595295151E0,8.274068595E0,6.961508571E1
3.716930917E0,7.185101161E1,-5.075443997E0,7.138990721E0,7.238296202E1
3.727000917E0,7.193015485E1,-3.012479657E0,6.256200321E0,7.226452970E1
3.737070917E0,7.182873138E1,-1.871492586E0,6.184396513E0,7.211876245E1
3.747140917E0,6.911495908E1,-1.811104882E0,6.842403570E0,6.947644317E1
3.757210917E0,6.111543012E1,-3.065809187E0,8.095137949E0,6.172541003E1
3.767281917E0,5.215886165E1,-4.641173045E0,8.420341372E0,5.303762330E1
3.777351917E0,4.372525412E1,-6.285994223E0,6.566605611E0,4.466018227E1
3.787421917E0,3.620070150E1,-8.388661158E0,4.087180352E0,3.738402692E1
3.797491917E0,2.971577916E1,-1.088818914E1,2.052090858E0,3.171421244E1
3.807561917E0,2.437660234E1,-1.371156517E1,3.238025768E-1,2.797017357E1
3.817632917E0,2.021360232E1,-1.653892081E1,-5.179497977E-1,2.612267008E1
3.827702917E0,1.680000250E1,-1.951760590E1,-6.882593092E-1,2.576141931E1
3.837772917E0,1.401744004E1,-2.222017728E1,-6.691133324E-1,2.628065098E1
3.847842917E0,1.151585266E1,-2.440396731E1,-7.145987499E-1,2.699405739E1
3.857912917E0,9.651001343E0,-2.682166703E1,-7.453901144E-1,2.851489532E1
3.867983917E0,8.374140183E0,-2.885675769E1,-6.786689253E-1,3.005493769E1
3.878053917E0,7.292050946E0,-2.973932239E1,-1.006746694E0,3.063682167E1
3.888123917E0,6.699895231E0,-3.011279808E1,-1.030398681E0,3.086633969E1
3.898193917E0,6.625107588E0,-3.037478609E1,-4.859492290E-1,3.109269733E1
3.908263917E0,7.081457042E0,-3.052711775E1,-1.538919917E-1,3.133808601E1
3.918334917E0,8.191709393E0,-3.058717801E1,-4.139065620E-1,3.166782089E1
3.928404917E0,9.924979649E0,-3.044568007E1,-5.170496920E-1,3.202673877E1
3.938474917E0,1.249176699E1,-3.021758253E1,-4.833963346E-1,3.270137930E1
3.948544917E0,1.504049345E1,-2.998332436E1,-7.997456118E-1,3.355377439E1
3.958614917E0,1.764485967E1,-2.970754160E1,-7.475989732E-1,3.456064243E1
3.968684917E0,2.089883050E1,-2.934972942E1,-1.116519689E0,3.604739033E1
3.978755917E0,2.410305322E1,-2.897612041E1,-2.255802004E0,3.775793124E1
3.988825917E0,2.672392965E1,-2.862600551E1,-3.048841445E0,3.927991906E1
3.998895917E0,2.887185520E1,-2.770495678E1,-3.109028882E0,4.013495625E1
4.008965917E0,3.074394654E1,-2.686556792E1,-3.177717294E0,4.095176279E1
4.019035917E0,3.216309618E1,-2.594378712E1,-3.345064605E0,4.145762057E1
4.029106917E0,3.324206184E1,-2.510917193E1,-4.104775794E0,4.186113203E1
4.039176917E0,3.351940697E1,-2.415071739E1,-4.981048887E0,4.161272212E1
4.049246917E0,3.305934103E1,-2.336805120E1,-5.750418506E0,4.089074662E1
4.059316917E0,3.188393842E1,-2.248601743E1,-5.873101276E0,3.945503551E1
4.069386917E0,2.956287447E1,-2.127776750E1,-5.630779796E0,3.685664957E1
4.079457917E0,2.658900865E1,-2.010800394E1,-4.680780330E0,3.366328724E1
4.089527917E0,2.328460675E1,-1.861332464E1,-4.330292376E0,3.012275217E1
4.099597917E0,1.999364176E1,-1.760186860E1,-4.762287008E0,2.706013427E1
4.109667917E0,1.576450738E1,-1.758142557E1,-5.057420540E0,2.414961119E1
4.119739000E0,1.074150121E1,-1.969993845E1,-3.856614114E0,2.276710117E1
4.129810000E0,5.165596368E0,-2.382894979E1,-1.417756838E0,2.442360064E1
4.139880000E0,-4.497771835E-1,-3.029050900E1,1.636508777E0,3.033801899E1
4.149950000E0,-7.273105967E0,-3.631379133E1,6.585737700E0,3.761597337E1
4.160020000E0,-1.423448283E1,-3.962744586E1,1.415777789E1,4.442294049E1
4.170090000E0,-1.920111132E1,-4.287989642E1,2.076691966E1,5.136762740E1
4.180160000E0,-2.316807175E1,-4.461913902E1,2.414601389E1,5.577326512E1
4.190231000E0,-2.619173245E1,-4.513881616E1,2.531759008E1,5.800430967E1
4.200301000E0,-2.769886398E1,-4.435657565E1,2.534922586E1,5.811468077E1
4.210371000E0,-2.805372682E1,-4.297986978E1,2.443975695E1,5.684700972E1
4.220441000E0,-2.699253670E1,-4.084721715E1,2.298553103E1,5.408721497E1
4.230511000E0,-2.454663470E1,-3.801467386E1,2.096870473E1,4.987323212E1
4.240582000E0,-2.110066235E1,-3.500316367E1,1.839262149E1,4.481905782E1
4.250652000E0,-1.646218897E1,-3.225180546E1,1.490519823E1,3.915798202E1
4.260722000E0,-1.083397493E1,-2.995499343E1,1.042209355E1,3.351561842E1
4.270792000E0,-4.797473212E0,-2.819144044E1,6.205476894E0,2.926227959E1
4.280862000E0,1.273745179E0,-2.705404239E1,2.570582181E0,2.720572604E1
4.290932000E0,7.191047312E0,-2.693041120E1,-3.984409690E-1,2.787681768E1
4.301003000E0,1.320945424E1,-2.815235765E1,-2.103872631E0,3.116843279E1
4.311073000E0,2.029825363E1,-3.035389516E1,-2.111624723E0,3.657645432E1
4.321143000E0,2.618274411E1,-3.205287617E1,-1.360685382E0,4.140983488E1
4.331213000E0,2.925793749E1,-3.344826273E1,1.289667878E0,4.445758011E1
4.341283000E0,2.998143921E1,-3.458449835E1,5.608642237E0,4.611324204E1
4.351354000E0,2.854262889E1,-3.567511400E1,9.202297708E0,4.660555445E1
4.361424000E0,2.635241394E1,-3.594829825E1,1.244232644E1,4.627679067E1
4.371494000E0,2.350996078E1,-3.497934211E1,1.274067360E1,4.402950596E1
4.381564000E0,2.080620593E1,-3.369676472E1,1.071308842E1,4.102609439E1
4.391634000E0,1.843544416E1,-3.216583970E1,7.988818027E0,3.792529576E1
4.401705000E0,1.643138116E1,-3.089026025E1,4.926934075E0,3.533373946E1
4.411775000E0,1.479782230E1,-3.017796647E1,2.943657929E0,3.373944764E1
4.421845000E0,1.249601440E1,-2.994826913E1,2.135105094E0,3.252088365E1
4.431915000E0,9.294659157E0,-3.060188727E1,2.808439897E0,3.210535045E1
4.441985000E0,5.884279983E0,-3.282481389E1,4.069572047E0,3.359545467E1
4.452055000E0,3.494855652E0,-3.555388719E1,5.382457902E0,3.612843427E1
4.462126000E0,1.623682909E0,-3.516571159E1,7.623330211E0,3.601914465E1
4.472196000E0,7.727791303E-1,-3.443276311E1,7.990931795E0,3.535629157E1
4.482266000E0,9.940143818E-1,-3.421570978E1,6.251621366E0,3.479634507E1
4.492336000E0,8.967553049E-1,-3.100014112E1,4.924588757E0,3.140166388E1
4.502406000E0,9.739894223E-1,-3.009722344E1,1.949811362E0,3.017603815E1
4.512477000E0,1.198640617E0,-2.823434497E1,-3.712574096E-1,2.826221519E1
4.522547000E0,1.709394320E0,-2.714344632E1,-1.736413280E0,2.725259324E1
4.532617000E0,2.284345772E0,-2.641259816E1,-2.144409623E0,2.659778317E1
4.542687000E0,4.203576196E0,-2.662245707E1,-3.143046813E0,2.713492245E1
4.552757000E0,8.856877536E0,-2.598428493E1,-5.345502915E0,2.796786986E1
4.562828000E0,1.441881397E1,-2.435882213E1,-6.618258744E0,2.906984280E1
4.572898000E0,1.980152564E1,-2.163623690E1,-6.425480722E0,3.002522219E1
4.582968000E0,2.571455755E1,-1.954231974E1,-5.006566721E0,3.268342762E1
4.593038000E0,3.252553936E1,-1.972135798E1,-1.646226264E0,3.807299216E1
4.603108000E0,4.070782421E1,-2.043101583E1,2.023748235E0,4.559220236E1
4.613178000E0,4.952587915E1,-2.212288195E1,5.466885849E0,5.451716659E1
4.623249000E0,5.650550401E1,-2.242769262E1,9.297883312E0,6.150060174E1
4.633319000E0,6.162506408E1,-1.828619865E1,1.174874375E1,6.534574634E1
4.643389000E0,6.828710093E1,-1.144984461E1,9.804180851E0,6.993103072E1
4.653459000E0,7.106549666E1,-3.806988795E0,5.009435949E0,7.134348203E1
4.663529000E0,7.099480617E1,2.040290008E0,1.269485482E0,7.103546212E1
4.673600000E0,7.114998659E1,4.507056044E0,9.364103906E-2,7.129265681E1
4.683670000E0,7.115377091E1,4.046203650E0,8.032893900E-1,7.127324991E1
4.693740000E0,6.940634221E1,1.678588849E0,3.624602444E0,6.952118916E1
4.703810000E0,6.442586167E1,-1.507649007E0,8.518200374E0,6.500403368E1
4.713880000E0,5.958701473E1,-5.023479792E0,1.232638902E1,6.105561022E1
4.723951000E0,5.365413503E1,-7.858460786E0,1.405441900E1,5.601828545E1
4.734021000E0,4.653551951E1,-9.674925225E0,1.173409648E1,4.895761202E1
4.744091000E0,3.918967886E1,-1.077583022E1,6.995908184E0,4.124187408E1
4.754161000E0,3.209579941E1,-1.228289041E1,2.732899718E0,3.447431620E1
4.764231000E0,2.557223165E1,-1.449818057E1,1.079166945E0,2.941599688E1
4.774302000E0,2.037985503E1,-1.696912736E1,1.942267284E0,2.659064077E1
4.784372000E0,1.656558996E1,-1.911846209E1,3.041894660E0,2.547915789E1
4.794442000E0,1.375524036E1,-2.171010595E1,3.311549535E0,2.591334980E1
4.804512000E0,1.155851044E1,-2.432605901E1,3.157668360E0,2.711691686E1
4.814582000E0,9.768607560E0,-2.649344410E1,3.372601483E0,2.843769883E1
4.824653000E0,7.864574634E0,-2.821945796E1,3.241233258E0,2.947363118E1
4.834723000E0,6.402632727E0,-2.969352933E1,3.648032237E0,3.059424013E1
4.844793000E0,6.128496546E0,-3.034223113E1,5.054803326E0,3.136495651E1
4.854863000E0,6.739659221E0,-3.087684440E1,5.413090296E0,3.206406201E1
4.864933000E0,8.201976519E0,-3.120162682E1,5.816854570E0,3.278185065E1
4.875003000E0,1.006761663E1,-3.076167998E1,6.354158725E0,3.298504498E1
4.885074000E0,1.215177011E1,-3.089120516E1,5.804053845E0,3.369894826E1
4.895144000E0,1.490646474E1,-3.024348101E1,4.655120701E0,3.403734689E1
4.905214000E0,1.815577885E1,-2.962952571E1,2.988079518E0,3.487792595E1
4.915284000E0,2.183136784E1,-2.944115649E1,2.057128235E0,3.670997267E1
4.925354000E0,2.573255528E1,-2.949364811E1,1.794608132E0,3.918239782E1
4.935425000E0,2.967648119E1,-3.014301182E1,1.929972636E0,4.234406088E1
4.945495000E0,3.331033627E1,-3.023996567E1,1.862954774E0,4.502782058E1
4.955565000E0,3.574680554E1,-3.004425000E1,1.484434684E0,4.671931732E1
4.965635000E0,3.671559796E1,-2.958892264E1,1.151116787E0,4.716846983E1
4.975705000E0,3.583869103E1,-2.815466847E1,3.159534207E-1,4.557627626E1
4.985776000E0,3.410646976E1,-2.617012114E1,-8.341313329E-1,4.299793362E1
4.995846000E0,3.153811537E1,-2.451205894E1,-1.446538149E0,3.996981645E1
5.005916000E0,2.825622057E1,-2.270561780E1,-8.966389453E-1,3.625966136E1
5.015986000E0,2.503126129E1,-2.123213817E1,-2.368403006E-1,3.282413481E1
5.026056000E0,2.235988363E1,-1.992872831E1,1.621750989E0,2.999581111E1
5.036126000E0,1.997219417E1,-1.912307204E1,4.031494394E0,2.794339584E1
5.046197000E0,1.722108155E1,-1.889201931E1,6.468200480E0,2.636876297E1
5.056267000E0,1.374265949E1,-1.877656253E1,7.744948204E0,2.452354406E1
5.066337000E0,9.106270055E0,-1.964126983E1,8.589639316E0,2.329131895E1
5.076407000E0,3.480977286E0,-2.230132494E1,9.393861848E0,2.444812748E1
5.086477000E0,-4.090144306E0,-2.592595077E1,1.008083718E1,2.811596490E1
5.096547000E0,-1.333446186E1,-2.863961549E1,1.369029651E1,3.443050489E1
5.106618000E0,-1.910535498E1,-3.216000184E1,1.932893730E1,4.210567805E1
5.116688000E0,-2.157373718E1,-3.511490864E1,2.438678352E1,4.788734859E1
5.126757417E0,-2.242446028E1,-3.703382682E1,2.819488562E1,5.166538806E1
5.136827417E0,-2.359178906E1,-3.726381185E1,2.779300649E1,5.213075286E1
5.146897417E0,-2.567719852E1,-3.621504589E1,2.652129088E1,5.171292820E1
5.156967417E0,-2.698232980E1,-3.492638739E1,2.562739662E1,5.103589046E1
5.167038417E0,-2.726996837E1,-3.401645305E1,2.514086384E1,5.032726187E1
5.177108417E0,-2.670851171E1,-3.322031721E1,2.436723511E1,4.909884133E1
5.187178417E0,-2.493385369E1,-3.217788028E1,2.233743266E1,4.643354324E1
5.197248417E0,-2.123110204E1,-3.102221086E1,1.936286168E1,4.228543097E1
5.207318417E0,-1.550444311E1,-2.984954240E1,1.528532221E1,3.694623138E1
5.217389417E0,-8.812559150E0,-2.905823403E1,1.145184085E1,3.245283998E1
5.227459417E0,-1.335272505E0,-2.885725821E1,8.299774125E0,3.005678883E1
5.237529417E0,7.025430776E0,-2.965479270E1,7.058406149E0,3.128233535E1
5.247599417E0,1.524630842E1,-3.138881724E1,7.576298132E0,3.570865528E1
5.257669417E0,2.286155369E1,-3.315021845E1,9.626086357E0,4.140349211E1
5.267739417E0,2.906905606E1,-3.426150518E1,1.229931056E1,4.658469488E1
5.277810417E0,3.281123665E1,-3.427966429E1,1.290013770E1,4.917403977E1
5.287880417E0,3.482710167E1,-3.312059412E1,1.302121599E1,4.979410438E1
5.297950417E0,3.563752342E1,-3.131873953E1,1.169675031E1,4.886420458E1
5.308020417E0,3.533268468E1,-2.905973793E1,9.294180855E0,4.668242467E1
5.318090417E0,3.330540356E1,-2.689956597E1,7.814970365E0,4.351907992E1
5.328161417E0,2.942377155E1,-2.498443211E1,7.350317865E0,3.929385897E1
5.338231417E0,2.400031765E1,-2.321452203E1,7.461058282E0,3.421398356E1
5.348301417E0,1.791197919E1,-2.229180099E1,8.063537257E0,2.971168159E1
5.358371417E0,1.204354282E1,-2.222842887E1,8.573424987E0,2.669557247E1
5.368441417E0,7.249580280E0,-2.251748714E1,8.964645814E0,2.529740137E1
5.378511417E0,3.736459095E0,-2.258237487E1,8.811964488E0,2.452703609E1
5.388582417E0,1.065365615E0,-2.259325536E1,7.854968244E0,2.394349010E1
5.398652417E0,-7.583961493E-1,-2.237856899E1,6.940393549E0,2.344236715E1
5.408722417E0,-1.175516633E0,-2.226693161E1,6.584485227E0,2.324980707E1
5.418792417E0,-6.988060051E-1,-2.232257138E1,5.407973982E0,2.297894048E1
5.428862417E0,-3.373592001E-1,-2.238645806E1,5.004009733E0,2.294139117E1
5.438932417E0,-2.724299634E-1,-2.212548513E1,5.553875461E0,2.281352325E1
5.449003417E0,-3.807373542E-1,-2.147912456E1,5.101798568E0,2.207999323E1
5.459073417E0,-8.090008771E-1,-2.033996065E1,4.788248645E0,2.091161894E1
5.469143417E0,-1.407541167E0,-1.950701893E1,4.320390701E0,2.002924700E1
5.479213417E0,-1.907830108E0,-1.852283898E1,3.025789674E0,1.886506779E1
5.489283417E0,-1.147396204E0,-1.866820778E1,1.463663182E0,1.876061858E1
5.499354417E0,7.727153957E-2,-1.856402677E1,4.794643745E-2,1.856424950E1
5.509424417E0,1.639558684E0,-1.944073723E1,-3.900638093E-1,1.951365078E1
5.519494417E0,3.365573714E0,-2.065591377E1,2.009685096E0,2.102457359E1
5.529564417E0,5.826328229E0,-2.138553870E1,5.587265986E0,2.285836624E1
5.539634417E0,1.108422757E1,-2.232047106E1,6.878827046E0,2.585308088E1
5.549704417E0,1.845632222E1,-2.398329055E1,6.781941022E0,3.101336454E1
5.559775417E0,2.734330649E1,-2.627529852E1,6.117531263E0,3.841187200E1
5.569845417E0,3.684434429E1,-2.982366730E1,6.172126715E0,4.780221737E1
5.579915417E0,4.487464831E1,-3.226909451E1,9.926118686E0,5.615653438E1
5.589985417E0,5.216107424E1,-3.239751340E1,1.686376872E1,6.367702282E1
5.600055417E0,5.822124548E1,-3.025261904E1,2.538944301E1,7.035309660E1
5.610126417E0,6.404635866E1,-2.576663519E1,3.208035107E1,7.612492674E1
5.620196417E0,6.914978042E1,-1.873829835E1,3.430406823E1,7.943289655E1
5.630266417E0,7.152457326E1,-1.005616076E1,3.110636398E1,7.864157189E1
5.640336417E0,7.143936296E1,-1.919862508E0,2.367165033E1,7.528356714E1
5.650406417E0,7.133751849E1,4.367603459E0,1.606437248E1,7.325422560E1
5.660477417E0,6.871337231E1,8.188502780E0,9.923612570E0,6.990749029E1
5.670547417E0,6.006671562E1,9.237637110E0,6.077566128E0,6.107602701E1
5.680617417E0,5.032002927E1,7.690105999E0,4.391243752E0,5.109330776E1
5.690687417E0,4.137816772E1,4.394300092E0,2.841386619E0,4.170774646E1
5.700757417E0,3.344605482E1,-1.224328020E-1,7.722967350E-1,3.345519414E1
5.710827417E0,2.706176539E1,-4.497872992E0,-1.717773964E0,2.748673780E1
5.720898417E0,2.184158410E1,-8.767866542E0,-3.726859136E0,2.382896890E1
5.730968417E0,1.745146184E1,-1.308717025E1,-4.030283436E0,2.218266733E1
5.741038417E0,1.372236030E1,-1.638665581E1,-3.494093760E0,2.165720092E1
5.751108417E0,1.117798534E1,-1.938100675E1,-2.727610912E0,2.253909138E1
5.761178417E0,9.689076072E0,-2.196549128E1,-1.038805223E0,2.402998374E1
5.771248417E0,8.674212273E0,-2.417437522E1,6.151937449E-1,2.569087074E1
5.781319417E0,7.768434130E0,-2.601735211E1,1.769866809E0,2.720999096E1
5.791389417E0,7.820994751E0,-2.776574209E1,3.291819860E0,2.903343712E1
5.801459417E0,8.815551170E0,-2.877009260E1,5.134340662E0,3.052529483E1
5.811529417E0,1.014603481E1,-2.916477264E1,6.692050606E0,3.159603656E1
5.821599417E0,1.173534310E1,-2.921977623E1,7.759107821E0,3.243019202E1
5.831670417E0,1.339614882E1,-2.853103971E1,7.971685685E0,3.251191786E1
5.841740417E0,1.502972521E1,-2.739031109E1,7.360900741E0,3.209835885E1
5.851810417E0,1.727285279E1,-2.595403378E1,6.792138566E0,3.190762384E1
5.861880417E0,1.977655335E1,-2.444211455E1,6.106151412E0,3.202833294E1
5.871950417E0,2.192870527E1,-2.306303704E1,4.756072587E0,3.217750797E1
5.882020417E0,2.579446794E1,-2.183757993E1,4.011439906E0,3.403419051E1
5.892091417E0,3.134160449E1,-2.057016319E1,3.619250488E0,3.766333442E1
5.902161417E0,3.650898542E1,-1.961252492E1,1.956620445E0,4.148958320E1
5.912231417E0,4.079745033E1,-1.935982697E1,-1.743987617E-1,4.515822482E1
5.922301417E0,4.271990257E1,-1.886061275E1,-1.765894064E0,4.673147944E1
5.932371417E0,4.245741404E1,-1.885824463E1,-2.307609504E0,4.651441130E1
5.942442417E0,3.993974799E1,-1.927971778E1,-1.307146229E0,4.436890373E1
5.952512417E0,3.604061643E1,-1.879933393E1,2.226151943E-1,4.064960697E1
5.962582417E0,3.202738933E1,-1.850410684E1,1.623344940E0,3.702419325E1
5.972652417E0,2.800120713E1,-1.808566489E1,3.907082017E0,3.356224314E1
5.982722417E0,2.357925263E1,-1.748021377E1,5.503604609E0,2.986350100E1
5.992792417E0,1.976185813E1,-1.751823003E1,6.641264614E0,2.723097163E1
6.002863417E0,1.476121756E1,-1.789102628E1,8.045753535E0,2.455028544E1
6.012933417E0,7.635718122E0,-1.949648926E1,9.783771729E0,2.311145764E1
6.023003417E0,-8.799591780E-2,-2.155859056E1,1.294476949E1,2.514652316E1
6.033073417E0,-6.357715586E0,-2.346934836E1,1.692608250E1,2.962639244E1
6.043143417E0,-9.613953384E0,-2.599905968E1,1.973658412E1,3.402810539E1
6.053213417E0,-1.018969480E1,-2.882178666E1,2.317302551E1,3.836032296E1
6.063284417E0,-9.268941933E0,-3.110851810E1,2.583449798E1,4.148583455E1
6.073354417E0,-9.463436113E0,-3.292926387E1,2.694225766E1,4.358644617E1
6.083424417E0,-1.109717331E1,-3.286490941E1,2.574374451E1,4.319710532E1
6.093494417E0,-1.010924529E1,-3.384787314E1,2.068211632E1,4.093440230E1
6.103564417E0,-8.903807874E0,-3.166709559E1,1.536031041E1,3.630457098E1
6.113634417E0,-8.303032193E0,-2.850104115E1,1.406169527E1,3.284784566E1
6.123705667E0,-9.217153144E0,-2.711192281E1,1.586299671E1,3.273601893E1
6.133775667E0,-1.180811872E1,-2.678545873E1,1.888155397E1,3.483397116E1
6.143845667E0,-1.369295816E1,-2.650390594E1,2.018849905E1,3.602123855E1
6.153915667E0,-1.339470806E1,-2.565398274E1,1.942800784E1,3.485674286E1
6.163985667E0,-1.070402875E1,-2.415055834E1,1.654218940E1,3.116840917E1
6.174055667E0,-6.169741636E0,-2.247081935E1,1.257053015E1,2.647681367E1
6.184126667E0,-1.119876283E0,-2.099836882E1,8.985977626E0,2.286773732E1
6.194196667E0,3.537008230E0,-2.076155425E1,7.019853702E0,2.219979523E1
6.204266667E0,7.924978126E0,-2.141735925E1,7.054676210E0,2.390140188E1
6.214336667E0,1.215789799E1,-2.274299320E1,8.181031208E0,2.705526742E1
6.224406667E0,1.641149829E1,-2.433784700E1,9.934983065E0,3.098986868E1
6.234476667E0,2.077488356E1,-2.594018289E1,1.115815743E1,3.505700148E1
6.244547667E0,2.518498693E1,-2.692580827E1,1.104868469E1,3.848838982E1
6.254617667E0,2.935259690E1,-2.694447726E1,9.372651658E0,4.093197282E1
6.264687667E0,3.208440202E1,-2.587380530E1,6.370136826E0,4.170660975E1
6.274757667E0,3.229139813E1,-2.504819482E1,3.781856585E0,4.104203816E1
6.284827667E0,3.042558670E1,-2.493773390E1,3.483116198E0,3.949353107E1
6.294897667E0,2.674502640E1,-2.617161101E1,6.123344564E0,3.791760816E1
6.304968667E0,2.180680252E1,-2.718983345E1,1.026909180E1,3.633562887E1
6.315038667E0,1.639014192E1,-2.758007662E1,1.234982232E1,3.437754339E1
6.325108667E0,1.130818529E1,-2.799245034E1,1.320041210E1,3.295001078E1
6.335178667E0,7.974383590E0,-2.788644967E1,1.315521079E1,3.184814657E1
6.345248667E0,6.487133764E0,-2.757415456E1,1.128593429E1,3.049244525E1
6.355318667E0,5.462845423E0,-2.651004785E1,8.657012104E0,2.841776163E1
6.365389667E0,4.336744194E0,-2.522702607E1,6.037351318E0,2.629942595E1
6.375459667E0,3.360995345E0,-2.424621411E1,4.266153098E0,2.484703706E1
6.385529667E0,2.380920140E0,-2.334015063E1,3.495771326E0,2.372028307E1
6.395599667E0,1.376683656E0,-2.249568872E1,3.423546226E0,2.279631413E1
6.405669667E0,6.878085619E-1,-2.171749215E1,3.307390995E0,2.197865740E1
6.415739667E0,5.162173408E-1,-2.058569339E1,3.161483669E0,2.083344023E1
6.425810667E0,3.892450529E-1,-1.918833515E1,2.166685175E0,1.931419794E1
6.435880667E0,5.509895629E-1,-1.809632436E1,2.947188185E-1,1.810710921E1
6.445950667E0,9.128608757E-1,-1.734256914E1,-7.661904877E-1,1.738347110E1
6.456020667E0,1.017361144E0,-1.663961688E1,-1.151745948E0,1.671042765E1
6.466090667E0,1.508492761E0,-1.608634983E1,-1.409377778E0,1.621827817E1
6.476160667E0,3.369762075E0,-1.621418399E1,-2.716356191E0,1.678194417E1
6.486231667E0,6.673499145E0,-1.715857715E1,-2.925465487E0,1.864163912E1
6.496301667E0,1.070679682E1,-1.802940882E1,-1.502784709E0,2.102268876E1
6.506371667E0,1.678234040E1,-1.829198038E1,-1.250436423E0,2.485572543E1
6.516441667E0,2.518084710E1,-1.969958528E1,-1.290748297E0,3.199710537E1
6.526511667E0,3.468742104E1,-2.286785231E1,-1.241761494E-1,4.154721732E1
6.536582667E0,4.441784979E1,-2.625838135E1,2.525179721E0,5.166066690E1
6.546652667E0,5.228616723E1,-2.819400152E1,7.644029939E0,5.989303966E1
6.556722667E0,5.744667652E1,-2.737859560E1,1.486654814E1,6.535076430E1
6.566792667E0,6.165643790E1,-2.355135439E1,2.167634880E1,6.946975404E1
6.576862667E0,6.667862546E1,-1.724800914E1,2.403583363E1,7.294692736E1
6.586932667E0,7.098994596E1,-9.157695732E0,2.016223336E1,7.436364349E1
6.597003667E0,7.134423110E1,-4.473032266E-1,1.299818381E1,7.252001222E1
6.607073667E0,7.132209120E1,6.025818270E0,5.385178027E0,7.177848787E1
6.617143667E0,6.960276655E1,1.019580397E1,-9.067746003E-2,7.034563066E1
6.627213667E0,6.269269549E1,1.207390157E1,-8.719455689E-1,6.385071226E1
6.637283667E0,5.517588927E1,1.168144230E1,8.865273553E-1,5.640585769E1
6.647353667E0,4.878620170E1,9.190149533E0,2.948273721E0,4.973172672E1
6.657424667E0,4.245379812E1,5.396873043E0,3.885746697E0,4.297150499E1
6.667494667E0,3.644292124E1,5.673562118E-1,4.532907169E0,3.672813158E1
6.677564667E0,3.089501754E1,-4.701915091E0,4.688964093E0,3.160057751E1
6.687634667E0,2.552522471E1,-9.529646475E0,4.077437721E0,2.754953279E1
6.697704667E0,2.054419687E1,-1.353258424E1,2.928104335E0,2.477435481E1
6.707774667E0,1.598446794E1,-1.660090597E1,4.467249370E-1,2.304979084E1
6.717845667E0,1.266534743E1,-1.920009858E1,-1.719467903E0,2.306537190E1
6.727915667E0,1.023283789E1,-2.170960542E1,-2.247171660E0,2.410534628E1
6.737985667E0,8.386713451E0,-2.448313627E1,-1.880540568E0,2.594797405E1
6.748055667E0,7.133736997E0,-2.622380794E1,-2.390476245E-1,2.717784852E1
6.758125667E0,6.844106864E0,-2.758556599E1,1.395725698E0,2.845616453E1
6.768196667E0,8.004476286E0,-2.856089793E1,2.930581216E0,2.980578530E1
6.778266667E0,9.815346694E0,-2.883420849E1,4.378338947E0,3.077210525E1
6.788336667E0,1.131785191E1,-2.925628156E1,5.168026471E0,3.179201598E1
6.798406667E0,1.292013167E1,-2.979024462E1,5.192880646E0,3.288395484E1
6.808476667E0,1.496113971E1,-2.995621433E1,5.413755709E0,3.391930467E1
6.818546667E0,1.712504103E1,-2.964811518E1,5.175755321E0,3.462753539E1
6.828617667E0,1.889181934E1,-2.916877213E1,5.363804115E0,3.516373843E1
6.838687667E0,2.052532908E1,-2.813818166E1,6.061067040E0,3.535226916E1
6.848757667E0,2.196332079E1,-2.671397067E1,7.114749919E0,3.530783702E1
6.858827667E0,2.294772995E1,-2.519639133E1,7.360061080E0,3.486584210E1
6.868897667E0,2.380604741E1,-2.312040758E1,6.661827518E0,3.384761566E1
6.878967667E0,2.457390845E1,-2.092570898E1,4.769129419E0,3.262678146E1
6.889038667E0,2.557368643E1,-1.953589014E1,3.100886049E0,3.233078928E1
6.899108667E0,2.695820419E1,-1.789879489E1,1.727140034E0,3.240516385E1
6.909178667E0,2.843914253E1,-1.611084030E1,3.551633871E-1,3.268746157E1
6.919248667E0,2.907910391E1,-1.452456320E1,-5.637312305E-1,3.250961417E1
6.929318667E0,2.900084945E1,-1.327878116E1,-1.831412262E0,3.194885552E1
6.939388667E0,2.810761242E1,-1.159231319E1,-2.971178434E0,3.054909986E1
6.949459667E0,2.630710503E1,-1.035111303E1,-3.121719679E0,2.844212457E1
6.959529667E0,2.401806745E1,-9.376921295E0,-2.819832028E0,2.593734122E1
6.969599667E0,2.170596846E1,-8.313149046E0,-2.467726150E0,2.337407081E1
6.979669667E0,1.956487479E1,-7.954446339E0,-1.903226741E0,2.120565524E1
6.989739667E0,1.701652489E1,-8.642249054E0,-1.308400602E0,1.913014637E1
6.999809667E0,1.390441453E1,-1.029376237E1,-7.764839262E-1,1.731754066E1
7.009879667E0,9.703410521E0,-1.380426926E1,-4.876428750E-1,1.688051602E1
7.019950667E0,3.815654953E0,-2.031855048E1,-8.926067054E-1,2.069298101E1
7.030020667E0,-3.805907060E0,-2.651335504E1,1.401445445E0,2.682176305E1
7.040090667E0,-9.463248417E0,-3.032211671E1,5.947276715E0,3.231646535E1
7.050160667E0,-1.111016699E1,-3.535768971E1,1.071965719E1,3.858125299E1
7.060230667E0,-1.220545339E1,-4.132754487E1,1.706113213E1,4.634675055E1
7.070300667E0,-1.578335062E1,-4.376857965E1,2.585724599E1,5.322968994E1
7.080371667E0,-2.118579547E1,-4.341188546E1,3.171076494E1,5.778410112E1
7.090441667E0,-2.489649700E1,-4.176174039E1,3.204527713E1,5.823038991E1
7.100511667E0,-2.498813924E1,-3.929748047E1,2.833493345E1,5.451208607E1
7.110581667E0,-2.239638195E1,-3.649759739E1,2.433270145E1,4.925193295E1
7.120651667E0,-1.864876345E1,-3.393416869E1,2.056739862E1,4.384429346E1
7.130721750E0,-1.507735195E1,-3.130370517E1,1.737646896E1,3.884829691E1
7.140792750E0,-1.150425763E1,-2.902056159E1,1.472659854E1,3.451686027E1
7.150862750E0,-6.521462182E0,-2.730694382E1,1.140111743E1,3.030155324E1
7.160932750E0,-5.238538045E-1,-2.608829520E1,7.498325511E0,2.714955718E1
7.171002750E0,6.405279177E0,-2.535984908E1,4.415521976E0,2.652633373E1
7.181072750E0,1.389701546E1,-2.482012301E1,2.494325134E0,2.855498560E1
7.191142750E0,2.209758689E1,-2.455552247E1,9.322590867E-1,3.304763436E1
7.201213750E0,3.001502796E1,-2.459511747E1,-3.904908022E-1,3.880688328E1
7.211283750E0,3.589243396E1,-2.423789703E1,2.448756905E-1,4.331053488E1
7.221353750E0,3.863194103E1,-2.368296352E1,3.478706228E0,4.544679335E1
7.231423750E0,3.730418804E1,-2.345324045E1,8.637273073E0,4.490277741E1
7.241493750E0,3.388222436E1,-2.408371999E1,1.326305449E1,4.363415303E1
7.251563750E0,2.979051125E1,-2.451818215E1,1.535650154E1,4.152635255E1
7.261633750E0,2.572643909E1,-2.415378601E1,1.502980357E1,3.835557381E1
7.271704750E0,2.180313982E1,-2.318408142E1,1.299392587E1,3.437616394E1
7.281774750E0,1.780912550E1,-2.213090667E1,1.065224113E1,3.033829629E1
7.291844750E0,1.437452131E1,-2.142843153E1,8.439876920E0,2.714840812E1
7.301914750E0,1.147405442E1,-2.105638490E1,6.615752628E0,2.487555934E1
7.311984750E0,9.283910805E0,-2.096943446E1,5.527845411E0,2.358951581E1
7.322054750E0,7.488822616E0,-2.099496808E1,5.193128568E0,2.288754538E1
7.332125750E0,5.700963925E0,-2.119654500E1,5.581811703E0,2.264842448E1
7.342195750E0,4.264608849E0,-2.143790402E1,6.387834009E0,2.277224277E1
7.352265750E0,3.139625022E0,-2.172841007E1,6.089967488E0,2.278308042E1
7.362335750E0,2.165788212E0,-2.160707099E1,5.456074347E0,2.239028590E1
7.372405750E0,1.489156018E0,-2.126736647E1,4.401591570E0,2.176907142E1
7.382475750E0,1.221410844E0,-2.094769685E1,2.643969415E0,2.114919436E1
7.392546750E0,1.320656805E0,-2.094588422E1,1.067650123E0,2.101461579E1
7.402616750E0,1.499000391E0,-2.147382698E1,1.413236940E-1,2.152654686E1
7.412686750E0,1.685004414E0,-2.180694285E1,-3.576714040E-1,2.187486972E1
7.422756750E0,1.645664347E0,-2.177242791E1,4.262658218E-1,2.183869343E1
7.432826750E0,9.967842078E-1,-2.105938569E1,2.303651817E0,2.120844445E1
7.442896750E0,9.114259690E-1,-2.034604643E1,3.391495883E0,2.064690163E1
7.452967750E0,1.768448274E0,-1.975251896E1,2.445912819E0,1.998178931E1
7.463037750E0,2.711701223E0,-1.967806753E1,1.489890721E0,1.991982529E1
7.473107750E0,3.199235632E0,-1.949258215E1,1.397761114E0,1.980276758E1
7.483177750E0,4.517121441E0,-2.014633829E1,9.186651143E-1,2.066696103E1
7.493247750E0,6.239122943E0,-2.080378050E1,1.412143511E0,2.176506576E1
7.503317750E0,9.351895212E0,-2.088045153E1,3.384318134E0,2.312800920E1
7.513387750E0,1.570258069E1,-2.298018901E1,5.021354329E0,2.828204601E1
7.523458750E0,2.431361146E1,-2.634907167E1,7.356859145E0,3.659984503E1
7.533528750E0,3.228251972E1,-2.839761560E1,1.100413709E1,4.438103970E1
7.543598750E0,3.956209270E1,-2.877458560E1,1.454231769E1,5.103542847E1
7.553668750E0,4.624853349E1,-2.794819159E1,1.823273873E1,5.703035179E1
7.563738750E0,5.312695942E1,-2.530623479E1,2.198638221E1,6.281942645E1
7.573809750E0,5.988345921E1,-2.143600719E1,2.403370291E1,6.799374946E1
7.583879750E0,6.515482235E1,-1.583153752E1,2.459749144E1,7.142006049E1
7.593949750E0,6.958067811E1,-9.818167391E0,2.385387764E1,7.420831931E1
7.604019750E0,7.229878203E1,-5.594677332E0,2.206402622E1,7.579733208E1
7.614089750E0,7.231801236E1,-3.001534839E0,1.972613632E1,7.502016113E1
7.624159750E0,7.070658521E1,-2.247944516E0,1.845498789E1,7.310992426E1
7.634230750E0,6.313373460E1,-2.920925124E0,1.875539795E1,6.592545184E1
7.644300750E0,5.337187356E1,-4.912389711E0,1.895353553E1,5.685002171E1
7.654370750E0,4.395712662E1,-7.473013499E0,1.726077245E1,4.781222832E1
7.664440750E0,3.553556903E1,-9.594357026E0,1.400199988E1,3.938126907E1
7.674510750E0,2.865381721E1,-1.188439331E1,9.916750277E0,3.256719179E1
7.684580750E0,2.309230353E1,-1.442363324E1,6.593595189E0,2.801376761E1
7.694651750E0,1.807942941E1,-1.702896075E1,4.035136040E0,2.516214607E1
7.704721750E0,1.428885375E1,-1.987234478E1,3.335651758E0,2.470238857E1
7.714791750E0,1.138442830E1,-2.248795637E1,3.294494961E0,2.541981680E1
7.724861750E0,8.840596549E0,-2.498458179E1,2.920757601E0,2.666301370E1
7.734931750E0,6.576709015E0,-2.698820274E1,3.191066194E0,2.796067045E1
7.745001750E0,4.668009426E0,-2.898009418E1,3.438691977E0,2.955436978E1
7.755071750E0,3.423750587E0,-3.039953384E1,3.574978879E0,3.079990584E1
7.765142750E0,2.511573250E0,-3.084185700E1,3.614904252E0,3.115438454E1
7.775212750E0,2.168596630E0,-3.095120227E1,3.660685027E0,3.124228462E1
7.785282750E0,2.644568755E0,-3.070281723E1,4.325602909E0,3.111860489E1
7.795352750E0,3.582275035E0,-3.032077419E1,4.917208986E0,3.092508668E1
7.805422750E0,4.963394973E0,-2.952384781E1,5.394072812E0,3.042020547E1
7.815492750E0,6.439892939E0,-2.873212780E1,6.246771101E0,3.010032455E1
7.825563750E0,8.195145217E0,-2.807524691E1,6.538264157E0,2.996879698E1
7.835633750E0,1.069619114E1,-2.648093574E1,6.271104873E0,2.923995928E1
7.845703750E0,1.318537072E1,-2.527003819E1,6.603813783E0,2.925814737E1
7.855773750E0,1.611795520E1,-2.458711848E1,6.900041914E0,3.019810347E1
7.865843750E0,1.991380621E1,-2.394243723E1,6.790783181E0,3.187341705E1
7.875913750E0,2.299744064E1,-2.289718662E1,7.883754086E0,3.339636222E1
7.885984750E0,2.539575098E1,-2.191193546E1,9.166047310E0,3.477202190E1
7.896054750E0,2.752639684E1,-2.106262738E1,8.749768240E0,3.574766062E1
7.906124750E0,2.913774213E1,-2.044165776E1,7.246660765E0,3.632331869E1
7.916194750E0,3.005426278E1,-1.972645441E1,5.603124804E0,3.638387998E1
7.926264750E0,3.006736522E1,-1.883504404E1,4.011204263E0,3.570567315E1
7.936334750E0,2.946233744E1,-1.739451698E1,2.427352295E0,3.430000857E1
7.946404750E0,2.783323533E1,-1.589831506E1,1.810208211E0,3.210486357E1
7.956475750E0,2.580303528E1,-1.481482133E1,1.973252996E0,2.981894177E1
7.966545750E0,2.364825211E1,-1.433359782E1,2.546344303E0,2.777005084E1
7.976615750E0,2.133341662E1,-1.376106653E1,4.232112948E0,2.573698499E1
7.986685750E0,1.835718853E1,-1.350493042E1,6.548754061E0,2.371193151E1
7.996755750E0,1.476174147E1,-1.364659559E1,7.799537809E0,2.156319486E1
8.006825750E0,1.104305148E1,-1.402030868E1,7.789494631E0,1.947291114E1
8.016896750E0,6.546521595E0,-1.516822938E1,6.773008815E0,1.785513304E1
8.026966750E0,1.178422700E0,-1.796062919E1,5.430108032E0,1.880050410E1
8.037036750E0,-5.293466204E0,-2.200965179E1,4.440241665E0,2.306862160E1
8.047106750E0,-1.343130929E1,-2.560963511E1,5.653526634E0,2.946550260E1
8.057176750E0,-1.908292973E1,-2.889715025E1,8.104028056E0,3.556513420E1
8.067246750E0,-2.176264201E1,-3.302421797E1,1.040418236E1,4.089570357E1
8.077317750E0,-2.354889856E1,-3.551252866E1,1.240744546E1,4.438057028E1
8.087387750E0,-2.627235152E1,-3.717111009E1,1.260812541E1,4.723232692E1
8.097457750E0,-3.026403281E1,-3.786453607E1,1.322046337E1,5.024356104E1
8.107527750E0,-3.433379781E1,-3.845272153E1,1.303666551E1,5.317307695E1
8.117597750E0,-3.723491491E1,-3.850681763E1,1.356721262E1,5.525652134E1
8.127667250E0,-3.749323788E1,-3.734913676E1,1.325781773E1,5.455704019E1
8.137737250E0,-3.449958743E1,-3.578753257E1,1.091287258E1,5.089263019E1
8.147808250E0,-2.879803761E1,-3.340678960E1,7.897942940E0,4.480756704E1
8.157878250E0,-2.214057796E1,-3.072798598E1,5.526573642E0,3.827476102E1
8.167948250E0,-1.608763855E1,-2.884260041E1,3.960294018E0,3.326246595E1
8.178018250E0,-1.080084578E1,-2.837038395E1,3.687860254E0,3.058001420E1
8.188088250E0,-4.596042480E0,-2.960855993E1,4.446715702E0,3.029131407E1
8.198158250E0,1.818911499E0,-3.201169306E1,6.042709122E0,3.262776831E1
8.208228250E0,8.963643016E0,-3.497063444E1,8.316485467E0,3.704667461E1
8.218299250E0,1.661420488E1,-3.847788795E1,1.055987266E1,4.322141339E1
8.228369250E0,2.345117756E1,-4.029337824E1,1.367638598E1,4.858556979E1
8.238439250E0,2.805187676E1,-4.044543391E1,1.534643146E1,5.155825708E1
8.248509250E0,3.009163350E1,-3.960952064E1,1.600103076E1,5.225374166E1
8.258579250E0,2.977430979E1,-3.823689378E1,1.611895741E1,5.107240309E1
8.268649250E0,2.789616541E1,-3.672362969E1,1.547500823E1,4.864459787E1
8.278720250E0,2.511284398E1,-3.574577643E1,1.459304111E1,4.605835770E1
8.288790250E0,2.176919791E1,-3.482792028E1,1.355852833E1,4.325177105E1
8.298860250E0,1.838453830E1,-3.355641985E1,1.254518130E1,4.026668766E1
8.308930250E0,1.516466024E1,-3.267352537E1,1.158910190E1,3.783957535E1
8.319000250E0,1.213998212E1,-3.170242213E1,1.071383219E1,3.559787824E1
8.329070250E0,9.495161936E0,-3.051060287E1,9.533063588E0,3.334567872E1
8.339141250E0,7.257890342E0,-2.918253648E1,7.832922487E0,3.107494300E1
8.349211250E0,5.886600743E0,-2.769145439E1,5.783448842E0,2.889493026E1
8.359281250E0,5.369694600E0,-2.638594889E1,3.811562487E0,2.719521883E1
8.369351250E0,4.712884467E0,-2.492506416E1,2.328273565E0,2.547333824E1
8.379421250E0,4.117777078E0,-2.373208949E1,1.278862954E0,2.412060634E1
8.389491250E0,3.494373257E0,-2.296983243E1,4.985239586E-1,2.323945723E1
8.399561250E0,2.768896347E0,-2.238641596E1,1.204789549E-1,2.255732523E1
8.409632250E0,2.158529479E0,-2.158537548E1,4.215784013E-2,2.169307404E1
8.419702250E0,2.215712324E0,-2.085810348E1,9.350721091E-2,2.097566698E1
8.429772250E0,2.599944559E0,-1.994243418E1,1.032290840E-1,2.011146561E1
8.439842250E0,3.683024899E0,-1.938959047E1,1.589942721E-1,1.973692403E1
8.449912250E0,5.848624831E0,-1.928916922E1,-1.858037558E-1,2.015720676E1
8.459982250E0,8.138283969E0,-1.981931755E1,-3.091121784E-1,2.142737885E1
8.470053250E0,1.031958251E1,-1.978825480E1,1.160771710E0,2.234762184E1
8.480123250E0,1.227578838E1,-1.822805160E1,3.311760035E0,2.222441451E1
8.490193250E0,1.518036235E1,-1.631901755E1,5.036790394E0,2.285001078E1
8.500263250E0,1.956940053E1,-1.474407703E1,6.008120502E0,2.522789640E1
8.510333250E0,2.466945429E1,-1.374656660E1,6.027204645E0,2.887693308E1
8.520403250E0,3.027526882E1,-1.348876403E1,6.702703063E0,3.381515763E1
8.530474250E0,3.589708132E1,-1.403106288E1,9.078225639E0,3.959653209E1
8.540544250E0,4.087916634E1,-1.571414531E1,1.361733963E1,4.586362984E1
8.550614250E0,4.577960551E1,-1.642801433E1,1.974510936E1,5.249305934E1
8.560684250E0,5.237500281E1,-1.527606022E1,2.482695022E1,5.994060721E1
8.570754250E0,6.086827065E1,-1.247812660E1,2.699564976E1,6.774522213E1
8.580824250E0,6.873200855E1,-9.739607710E0,2.806925936E1,7.487878391E1
8.590894250E0,7.226679075E1,-9.012617540E0,3.065323050E1,7.901478887E1
8.600965250E0,7.216981117E1,-9.935380676E0,3.467277728E1,8.068082125E1
8.611035250E0,7.185991342E1,-1.226388462E1,3.522374871E1,8.096272288E1
8.621105250E0,6.831846072E1,-1.402762472E1,3.141067881E1,7.649063389E1
8.631175250E0,6.048624633E1,-1.490375865E1,2.437978323E1,6.689605255E1
8.641245250E0,5.174944897E1,-1.538145628E1,1.680326290E1,5.654152731E1
8.651315250E0,4.315718542E1,-1.607239369E1,1.096688331E1,4.734064873E1
8.661386250E0,3.550184931E1,-1.713946377E1,6.976631083E0,4.003518332E1
8.671456250E0,2.901068915E1,-1.844958038E1,4.140347330E0,3.462873918E1
8.681526250E0,2.367141410E1,-2.026831588E1,1.668302427E0,3.120775076E1
8.691596250E0,1.965883721E1,-2.246085569E1,-4.491392523E-1,2.985233064E1
8.701666250E0,1.691456348E1,-2.496194371E1,-2.423239363E0,3.025017654E1
8.711736250E0,1.485008939E1,-2.779768192E1,-4.310788988E0,3.180910525E1
8.721807250E0,1.290487394E1,-3.031777807E1,-6.049624039E0,3.350076700E1
8.731877250E0,1.131448157E1,-3.217010349E1,-6.916348629E0,3.479610510E1
8.741947250E0,9.887145824E0,-3.296916995E1,-7.223630921E0,3.516962700E1
8.752017250E0,8.879278219E0,-3.329899969E1,-6.098040154E0,3.499787216E1
8.762087250E0,8.369103391E0,-3.331314761E1,-4.223842646E0,3.460705913E1
8.772157250E0,8.355968791E0,-3.309006932E1,-2.334779177E0,3.420856758E1
8.782227250E0,8.249127297E0,-3.290167437E1,-7.165096200E-1,3.392759442E1
8.792298250E0,7.985462894E0,-3.205487358E1,1.184126658E0,3.305578155E1
8.802368250E0,7.344914453E0,-3.063764884E1,2.836177919E0,3.163316614E1
8.812438250E0,6.805065590E0,-2.922724195E1,4.260028725E0,3.030987355E1
8.822508250E0,6.373327067E0,-2.710033363E1,5.678165631E0,2.841283065E1
8.832578250E0,5.937106653E0,-2.519918163E1,6.888547457E0,2.678992490E1
8.842648250E0,5.956950933E0,-2.393115210E1,8.395588939E0,2.605131895E1
8.852718250E0,6.603052475E0,-2.253943058E1,1.026480345E1,2.563186342E1
8.862789250E0,9.382697759E0,-2.092212815E1,1.202700456E1,2.589245647E1
8.872859250E0,1.470678466E1,-1.963693354E1,1.166037712E1,2.716363504E1
8.882929250E0,2.166924326E1,-1.971800869E1,8.789211802E0,3.058768076E1
8.892999250E0,2.973220282E1,-1.946939444E1,5.874688210E0,3.602184290E1
8.903069250E0,3.627739592E1,-1.889659651E1,2.498511740E0,4.098015832E1
8.913139250E0,4.025478194E1,-1.895406412E1,-2.440135185E-1,4.449453402E1
8.923210250E0,4.056726182E1,-1.932682528E1,2.189802727E-1,4.493636456E1
8.933280250E0,3.752953973E1,-1.960787755E1,2.705287997E0,4.242939780E1
8.943350250E0,3.283414136E1,-1.922702267E1,5.040752467E0,3.838187626E1
8.953420250E0,2.775888682E1,-1.711051771E1,6.087105861E0,3.317195309E1
8.963490250E0,2.326832109E1,-1.524618212E1,5.107659817E0,2.828337010E1
8.973560250E0,1.921438801E1,-1.421180616E1,3.653435357E0,2.417676014E1
8.983631250E0,1.498411927E1,-1.292503631E1,2.013813815E0,1.989059677E1
8.993701250E0,1.151465983E1,-1.325607175E1,3.216741172E-1,1.756172837E1
9.003771250E0,6.979200350E0,-1.514329685E1,-1.435920628E0,1.673590587E1
9.013841250E0,5.094439262E-1,-1.841618343E1,-4.402915379E0,1.894204342E1
9.023911250E0,-8.448289309E0,-2.328218601E1,-6.641757535E0,2.564267382E1
9.033981250E0,-1.732005853E1,-2.961390429E1,-6.512716502E0,3.491966825E1
9.044051250E0,-2.379135687E1,-3.567257631E1,-2.983935889E0,4.298215020E1
9.054122250E0,-2.659003542E1,-4.180522496E1,4.713080349E0,4.976866428E1
9.064192250E0,-2.879480059E1,-4.651736508E1,1.313271889E1,5.626254616E1
9.074262250E0,-3.306469942E1,-4.820002534E1,1.999467087E1,6.177623859E1
9.084332250E0,-3.630402882E1,-4.807159242E1,2.387120878E1,6.479733880E1
9.094402250E0,-3.572011651E1,-4.712400201E1,2.394076726E1,6.379465985E1
9.104472250E0,-3.190369265E1,-4.536727857E1,2.190281380E1,5.963026767E1
9.114542250E0,-2.706642212E1,-4.243149450E1,1.914203690E1,5.384645307E1
9.124617750E0,-2.224010459E1,-3.900314099E1,1.645535825E1,4.781888826E1
9.134687750E0,-1.714912805E1,-3.587982736E1,1.345792348E1,4.198297641E1
9.144757750E0,-1.113947908E1,-3.314237149E1,1.025342945E1,3.643676162E1
9.154827750E0,-3.494634628E0,-3.131628604E1,5.587315103E0,3.200219262E1
9.164897750E0,4.724270750E0,-3.108441587E1,5.601398706E-2,3.144141826E1
9.174967750E0,1.185548234E1,-3.268175123E1,-3.344302129E0,3.492611747E1
9.185037750E0,1.925912154E1,-3.513257425E1,-3.789468198E0,4.024390147E1
9.195108750E0,2.562072144E1,-3.833162803E1,-2.993736992E0,4.620278710E1
9.205178750E0,2.875233577E1,-4.077957188E1,2.784094723E-1,4.989737275E1
9.215248750E0,2.939581718E1,-4.109451227E1,6.548126070E0,5.094851285E1
9.225318750E0,2.774794551E1,-4.047661594E1,1.275841756E1,5.070583928E1
9.235388750E0,2.496731848E1,-3.851055283E1,1.714990105E1,4.899539547E1
9.245458750E0,2.209270096E1,-3.555117642E1,1.812621416E1,4.561286244E1
9.255529750E0,1.916821956E1,-3.311214840E1,1.564814194E1,4.133641686E1
9.265599750E0,1.604550586E1,-3.030312261E1,1.184219512E1,3.627637087E1
9.275669750E0,1.293388198E1,-2.752971339E1,7.860978012E0,3.141600543E1
9.285739750E0,1.067127966E1,-2.593734115E1,4.591287525E0,2.842009494E1
9.295809750E0,9.122194946E0,-2.475994346E1,2.516489004E0,2.650663988E1
9.305879750E0,7.945522903E0,-2.421849129E1,1.257774094E0,2.551957387E1
9.315949750E0,6.917124555E0,-2.443528968E1,8.176383841E-1,2.540863094E1
9.326020750E0,5.829106826E0,-2.456477510E1,8.268224595E-1,2.526044927E1
9.336090750E0,4.760103073E0,-2.450270574E1,7.550193822E-1,2.497220903E1
9.346160750E0,3.090906022E0,-2.446141270E1,1.750786467E-1,2.465654201E1
9.356230750E0,1.375529416E0,-2.437924061E1,1.129772696E-1,2.441827630E1
9.366300750E0,2.363035262E-1,-2.463264724E1,-3.018730330E-1,2.463563023E1
9.376370750E0,5.175955296E-2,-2.499390927E1,-3.773129323E-1,2.499681069E1
9.386440750E0,7.592586136E-1,-2.499686563E1,5.656918019E-2,2.500845787E1
9.396511750E0,1.686522351E0,-2.437243679E1,9.604636431E-2,2.443090783E1
9.406581750E0,2.802972166E0,-2.364163073E1,3.543456540E-1,2.380984916E1
9.416651750E0,4.459377263E0,-2.289179315E1,6.190643093E-1,2.333031246E1
9.426721750E0,5.976485311E0,-2.186334977E1,1.069261323E0,2.269069765E1
9.436791750E0,7.117581725E0,-2.108476728E1,1.803978295E0,2.232670416E1
9.446861750E0,8.094145092E0,-2.021396484E1,2.098830869E0,2.187520630E1
9.456932750E0,9.410051619E0,-1.916374410E1,2.202222213E0,2.146271050E1
9.467002750E0,1.142026355E1,-1.686482473E1,2.508533575E0,2.052163428E1
9.477072750E0,1.506504941E1,-1.416171540E1,2.195240053E0,2.079252211E1
9.487142750E0,2.033891283E1,-1.203727461E1,1.519635215E0,2.368283442E1
9.497212750E0,2.595479392E1,-1.059284394E1,1.319946368E0,2.806424644E1
9.507282750E0,3.223489765E1,-1.060517923E1,1.719923401E0,3.397817814E1
9.517352750E0,3.947284548E1,-1.133332598E1,3.313461574E0,4.120107809E1
9.527423750E0,4.743314196E1,-1.134538177E1,6.572586728E0,4.921198574E1
9.537493750E0,5.672587855E1,-1.084078226E1,1.178387382E1,5.894240867E1
9.547563750E0,6.786902969E1,-1.201927922E1,1.800794369E1,7.123871349E1
9.557633750E0,7.232783568E1,-1.293736575E1,2.633978863E1,7.805431257E1
9.567703750E0,7.216127891E1,-1.319928242E1,3.553668234E1,8.151274147E1
9.577773750E0,7.221737008E1,-1.354891083E1,4.089736755E1,8.409230761E1
9.587844750E0,7.198074964E1,-1.505482263E1,3.926590083E1,8.336478255E1
9.597914750E0,7.106124457E1,-1.582030385E1,3.058952859E1,7.896645967E1
9.607984750E0,6.316806009E1,-1.629277057E1,2.143086632E1,6.866542230E1
9.618054750E0,5.114658700E1,-1.628526275E1,1.393184031E1,5.545520101E1
9.628124750E0,4.069039015E1,-1.662114552E1,9.085410697E0,4.488334899E1
9.638194750E0,3.183881194E1,-1.738582802E1,6.321186275E0,3.682301397E1
9.648265750E0,2.493001558E1,-1.923474684E1,4.549443095E0,3.181475436E1
9.658335750E0,1.984236026E1,-2.171173849E1,3.864259641E0,2.966565946E1
9.668405750E0,1.611748274E1,-2.457823305E1,3.525208549E0,2.960219392E1
9.678475750E0,1.305261788E1,-2.710742981E1,2.688290141E0,3.020613329E1
9.688545750E0,1.059926185E1,-2.929925626E1,1.755691988E0,3.120694191E1
9.698615750E0,8.648771623E0,-3.113152806E1,1.027327431E0,3.232690353E1
9.708685750E0,7.027521155E0,-3.277295610E1,8.113613981E-1,3.352776480E1
9.718756750E0,5.642515157E0,-3.349363712E1,1.182852989E0,3.398618611E1
9.728826750E0,4.881004781E0,-3.359996055E1,1.567720231E0,3.398881145E1
9.738896750E0,4.803266049E0,-3.343123096E1,2.047385604E0,3.383652399E1
9.748966750E0,5.250869823E0,-3.308308306E1,2.935234430E0,3.362555011E1
9.759036750E0,6.218726685E0,-3.265533351E1,4.263489107E0,3.351448504E1
9.769106750E0,7.144407581E0,-3.159822709E1,5.309171240E0,3.282800350E1
9.779176750E0,8.316270289E0,-3.051702078E1,6.344168172E0,3.225984158E1
9.789247750E0,1.007735809E1,-2.861133368E1,7.516363002E0,3.125151634E1
9.799317750E0,1.190537546E1,-2.703463899E1,8.816831126E0,3.082768530E1
9.809387750E0,1.367500721E1,-2.600474083E1,1.023080657E1,3.111144116E1
9.819457750E0,1.591094856E1,-2.554963800E1,1.169098262E1,3.228964789E1
9.829527750E0,1.923550698E1,-2.538941494E1,1.225061963E1,3.412777170E1
9.839597750E0,2.301443733E1,-2.499733106E1,1.086538734E1,3.567334478E1
9.849668750E0,2.692641171E1,-2.470814181E1,9.586710037E0,3.778133042E1
9.859738750E0,3.029110775E1,-2.468214275E1,9.004973475E0,4.009799156E1
9.869808750E0,3.191165656E1,-2.448608093E1,8.921343673E0,4.120087810E1
9.879878750E0,3.238251178E1,-2.452068943E1,8.108229865E0,4.142022056E1
9.889948750E0,3.146312366E1,-2.458414108E1,6.818215978E0,4.050674280E1
9.900018750E0,2.943731604E1,-2.406362662E1,5.353932846E0,3.839633183E1
9.910088750E0,2.724342201E1,-2.334170131E1,4.745924159E0,3.618788276E1
9.920159750E0,2.441765915E1,-2.234790152E1,4.325952280E0,3.338210065E1
9.930229750E0,2.162156741E1,-2.149914074E1,4.703212588E0,3.085166833E1
9.940299750E0,1.899061389E1,-2.044982515E1,5.052913506E0,2.836142979E1
9.950369750E0,1.668713369E1,-1.980389727E1,4.899045196E0,2.635631655E1
9.960439750E0,1.406960188E1,-1.961677935E1,4.746610622E0,2.460288686E1
9.970509750E0,1.060288946E1,-2.098174168E1,3.748838235E0,2.380564086E1
9.980579750E0,5.249261253E0,-2.422563191E1,2.079982077E0,2.487493338E1
9.990650750E0,-2.327764857E0,-2.899585359E1,4.898586774E-1,2.909326342E1
1.000072075E1,-1.245550139E1,-3.273119996E1,4.191646707E-1,3.502351588E1