"Time (s)","Linear Acceleration x (m/s^2)","Linear Acceleration y (m/s^2)","Linear Acceleration z (m/s^2)","Absolute acceleration (m/s^2)"
8.217083290E-3,3.282653180E-1,-8.258665860E-2,-2.950306030E-1,4.490230861E-1
1.828708331E-2,3.444264373E-1,-1.218431103E-1,-1.711643744E-1,4.034508115E-1
2.835708333E-2,3.811373037E-1,-8.023607790E-2,-3.915997267E-2,3.914549475E-1
3.842708329E-2,2.240492240E-1,2.476979953E-1,6.771422904E-2,3.407896249E-1
4.849808331E-2,3.102468306E-1,7.781942368E-2,-1.634343918E-1,3.591932057E-1
5.856808333E-2,2.903239051E-1,8.591781735E-2,-3.142235585E-1,4.363556874E-1
6.863808329E-2,1.633603880E-1,1.587478119E-1,-4.409245356E-1,4.962881524E-1
7.870808331E-2,9.565664738E-2,1.586864161E-1,-4.233172902E-1,4.620920915E-1
8.877808333E-2,5.552662164E-2,1.494413835E-1,-3.586693045E-1,3.925042710E-1
9.884808329E-2,9.752337098E-2,5.424754322E-2,-3.128938286E-1,3.321989642E-1
1.089180833E-1,1.465107590E-2,-1.906543136E-2,-1.790557766E-1,1.806629897E-1
1.189880833E-1,-8.236358732E-2,-1.710544467E-2,1.433269501E-2,8.533336334E-2
1.290580833E-1,-1.294751886E-1,-2.050910890E-2,1.109497841E-1,1.717390538E-1
1.391290833E-1,-1.385474360E-1,4.370325923E-2,2.351013386E-1,2.763657112E-1
1.491990833E-1,-1.419376516E-1,8.279715836E-2,3.338164087E-1,3.720686242E-1
1.592690833E-1,-6.899217457E-2,7.700256765E-2,1.205216761E-1,1.587916559E-1
1.693390833E-1,1.113953054E-2,9.220474362E-2,1.745639455E-1,1.977330902E-1
1.794090833E-1,-3.267219454E-2,5.076961935E-2,2.908265098E-1,2.970270785E-1
1.894790833E-1,-4.336295128E-2,6.494619370E-2,1.898871589E-1,2.053180136E-1
1.995490833E-1,-8.286381662E-2,8.488344491E-2,1.921243401E-1,2.257949809E-1
2.096190833E-1,-1.068678063E-1,2.541550756E-2,1.406033536E-1,1.784263968E-1
2.196890833E-1,-1.133210859E-1,3.531659782E-2,1.381674035E-1,1.821514809E-1
2.297600833E-1,-9.121978015E-2,8.234633803E-2,3.170512720E-1,3.400345229E-1
2.398300833E-1,-5.391805261E-2,4.773666859E-2,3.162957752E-1,3.243901406E-1
2.499000833E-1,-4.546619475E-2,2.643526196E-2,2.775918853E-1,2.825300917E-1
2.599700833E-1,-7.348926812E-2,2.533540070E-2,3.144679721E-1,3.239331112E-1
2.700400833E-1,-1.261928540E-1,-4.628655910E-3,2.369678064E-1,2.685140632E-1
2.801100833E-1,-1.969953266E-1,1.212946415E-2,1.336451304E-1,2.383596096E-1
2.901800833E-1,-2.291459495E-1,1.685167551E-3,8.862741709E-2,2.456939662E-1
3.002500833E-1,-2.342090535E-1,-5.215891778E-2,1.302186255E-1,2.730042561E-1
3.103200833E-1,-2.501646432E-1,-7.088111758E-2,2.721258350E-1,3.763760774E-1
3.203910833E-1,-2.009913138E-1,-7.219147861E-2,3.608948278E-1,4.193497282E-1
3.304610833E-1,-1.712120292E-1,-1.377627397E-1,4.379494357E-1,4.899916730E-1
3.405310833E-1,-2.221661282E-1,-1.209777224E-1,5.001017567E-1,5.604419371E-1
3.506010833E-1,-2.002937409E-1,-1.075618708E-1,4.891371675E-1,5.393906816E-1
3.606710833E-1,-1.895296016E-1,-1.401951814E-1,3.539916050E-1,4.253072010E-1
3.707410833E-1,-2.210574961E-1,-6.939241648E-2,2.983038195E-1,3.777127120E-1
3.808110833E-1,-1.977306139E-1,-2.541141450E-2,3.118624528E-1,3.701369006E-1
3.908810833E-1,-1.935115555E-1,-5.342659414E-2,2.099723446E-1,2.904987239E-1
4.009510833E-1,-1.612469119E-1,-3.818816543E-3,1.293603273E-1,2.067589036E-1
4.110210833E-1,-1.554046664E-1,-5.148473382E-3,1.622040645E-1,2.246937375E-1
4.210920833E-1,-1.991678596E-1,6.739032984E-2,1.544249654E-2,2.108263824E-1
4.311620833E-1,-1.157362783E-1,9.751869321E-2,-2.005357426E-2,1.526660653E-1
4.412320833E-1,-1.619938937E-1,-3.956810832E-3,-5.051987015E-2,1.697348969E-1
4.513020833E-1,-1.310755715E-1,1.119162923E-1,-2.379793016E-1,2.938370465E-1
4.613720833E-1,-8.429930806E-3,1.080670702E-1,-2.219088507E-1,2.469677983E-1
4.714420833E-1,5.726470649E-2,7.414561808E-2,-1.150977258E-1,1.484058819E-1
4.815120833E-1,2.179108170E-1,9.630188763E-2,-1.160314165E-2,2.385242348E-1
4.915820833E-1,3.504750896E-1,-3.850976229E-2,-9.180011630E-2,3.643391985E-1
5.016520833E-1,3.688151738E-1,-1.388345343E-1,-4.607832514E-2,3.967655131E-1
5.117230833E-1,3.271134165E-1,-1.870103288E-1,8.290646475E-2,3.858102282E-1
5.217930833E-1,3.642344651E-1,-2.347481668E-1,1.254917363E-1,4.511337088E-1
5.318630833E-1,4.202446514E-1,-2.991944236E-1,1.447560461E-1,5.357958408E-1
5.419330833E-1,4.600296915E-1,-3.464089358E-1,1.873284538E-1,6.055728011E-1
5.520030833E-1,4.237661371E-1,-3.474590957E-1,2.486294568E-1,6.017658755E-1
5.620730833E-1,4.021665224E-1,-3.426392359E-1,3.592809963E-1,6.389228373E-1
5.721430833E-1,2.989482558E-1,-3.456827116E-1,4.614482625E-1,6.494621588E-1
5.822130833E-1,1.515922818E-1,-2.511338192E-1,4.634070798E-1,5.484473873E-1
5.922830833E-1,5.936385691E-3,-1.538180244E-1,4.577446361E-1,4.829341334E-1
6.023540833E-1,-1.542299607E-1,2.480681241E-2,4.459180943E-1,4.724883126E-1
6.124240833E-1,-2.436982074E-1,2.443972421E-1,3.760940071E-1,5.104561983E-1
6.224940833E-1,-2.480114061E-1,3.525999677E-1,1.266039133E-2,4.312733243E-1
6.325640833E-1,-4.505077931E-1,8.089500064E-1,-4.273261412E-1,1.019786750E0
6.426340833E-1,-6.718956569E-1,1.176745133E0,-1.063267050E0,1.722413917E0
6.527040833E-1,-7.058057070E-1,1.289057867E0,-1.544523304E0,2.131990646E0
6.627740833E-1,-7.363416213E-1,1.532857524E0,-1.951086055E0,2.588163048E0
6.728440833E-1,-8.508105156E-1,1.913824089E0,-2.480586516E0,3.246522853E0
6.829140833E-1,-9.305601051E-1,2.306120803E0,-2.625285223E0,3.616110862E0
6.929840833E-1,-1.016639598E0,2.531602303E0,-2.916186540E0,3.993333223E0
7.030550833E-1,-1.182113462E0,2.800790570E0,-3.334810928E0,4.512514153E0
7.131250833E-1,-1.494890383E0,2.829834859E0,-3.233461139E0,4.549498162E0
7.231950833E-1,-1.713936437E0,2.960800796E0,-3.053944602E0,4.585901993E0
7.332650833E-1,-1.755863020E0,3.216144025E0,-3.200427879E0,4.865118287E0
7.433350833E-1,-1.536770188E0,3.449115808E0,-3.411612936E0,5.088925751E0
7.534050833E-1,-1.194331512E0,3.646657557E0,-3.577404889E0,5.246176211E0
7.634750833E-1,-7.892969298E-1,3.818838177E0,-3.920199076E0,5.529419089E0
7.735450833E-1,-3.481122297E-1,3.629134036E0,-4.127266524E0,5.506916100E0
7.836150833E-1,-2.383190614E-1,3.352316322E0,-4.309968624E0,5.465404856E0
7.936850833E-1,1.428229201E-1,3.046973552E0,-4.336115034E0,5.301541266E0
8.037560833E-1,9.417455363E-1,2.746973382E0,-4.471290965E0,5.331527953E0
8.138260833E-1,2.174019923E0,2.584709054E0,-4.929188762E0,5.975281196E0
8.238960833E-1,3.751602214E0,1.865485741E0,-5.635561649E0,7.022400681E0
8.339660833E-1,5.205191374E0,8.533332968E-1,-5.957290657E0,7.956852828E0
8.440360833E-1,6.489518843E0,2.800927395E-1,-5.928614742E0,8.794360665E0
8.541060833E-1,8.535677701E0,-5.598130113E-1,-6.247595558E0,1.059262171E1
8.641760833E-1,1.152332306E1,-1.275785857E0,-6.372692059E0,1.322973197E1
8.742460833E-1,1.473045185E1,-1.605597471E0,-6.173334750E0,1.605223402E1
8.843160833E-1,1.752661494E1,-2.274906027E0,-5.984935123E0,1.865949830E1
8.943870833E-1,2.035240352E1,-3.511880406E0,-5.912136118E0,2.148271367E1
9.044570833E-1,2.298623971E1,-4.310039375E0,-6.573810550E0,2.429318095E1
9.145270833E-1,2.499312575E1,-5.068867049E0,-7.681870780E0,2.663382974E1
9.245970416E-1,2.644284463E1,-6.862216276E0,-8.829852290E0,2.871028276E1
9.346670416E-1,2.707338030E1,-9.017935583E0,-9.551298130E0,3.009183243E1
9.447370417E-1,2.753660141E1,-1.149580607E1,-9.739272079E0,3.138903303E1
9.548070416E-1,2.758192902E1,-1.397953020E1,-9.572414764E0,3.237006638E1
9.648770416E-1,2.801940366E1,-1.613192887E1,-9.181814911E0,3.360999607E1
9.749470417E-1,2.868608448E1,-1.791729080E1,-8.434431993E0,3.485771644E1
9.850180416E-1,2.799059794E1,-1.898041518E1,-6.042070606E0,3.435456812E1
9.950880416E-1,2.715709840E1,-1.952513126E1,-3.301637042E0,3.361011085E1
1.005158042E0,2.620864026E1,-1.977848059E1,-7.247634034E-1,3.284214367E1
1.015228042E0,2.503613085E1,-1.925750304E1,2.669359195E0,3.169833985E1
1.025298042E0,2.368046092E1,-1.768333552E1,5.122815800E0,2.999513004E1
1.035368042E0,2.234521882E1,-1.633830635E1,5.530895319E0,2.822835208E1
1.045438042E0,2.063468370E1,-1.565438092E1,4.494781569E0,2.628788457E1
1.055508042E0,1.873783876E1,-1.628591062E1,2.922244256E0,2.499753983E1
1.065578042E0,1.652376833E1,-1.778526067E1,1.592283361E0,2.432870287E1
1.075649042E0,1.395071161E1,-1.959871029E1,8.623333311E-1,2.407229566E1
1.085719042E0,1.085327542E1,-2.169652169E1,3.170384081E-1,2.426176322E1
1.095789042E0,9.766329485E0,-2.435671012E1,1.228500009E-2,2.624177338E1
1.105859042E0,1.004548842E1,-2.566128240E1,-6.770015918E-2,2.755753682E1
1.115929042E0,8.755325434E0,-2.750204436E1,-1.594499894E-1,2.886249455E1
1.125999042E0,7.295409002E0,-3.006132621E1,-7.280029070E-1,3.094246781E1
1.136069042E0,7.137229539E0,-3.080201407E1,-9.068923303E-1,3.163110131E1
1.146139042E0,7.438305597E0,-3.118197784E1,-9.845800455E-1,3.207200539E1
1.156209042E0,8.496315415E0,-3.175022897E1,-5.405204156E-1,3.287182041E1
1.166279042E0,9.988268741E0,-3.144989492E1,1.521609235E-1,3.299825080E1
1.176350042E0,1.230114893E1,-3.107602161E1,3.880317557E-1,3.342436167E1
1.186420042E0,1.471858317E1,-3.025174430E1,-7.768584403E-1,3.365127387E1
1.196490042E0,1.904823470E1,-2.918567994E1,-1.804267879E0,3.489834582E1
1.206560042E0,2.248343296E1,-2.812965876E1,-2.871255658E0,3.612515147E1
1.216630042E0,2.489123451E1,-2.778485781E1,-3.921195441E0,3.750930088E1
1.226700042E0,2.779330821E1,-2.692827112E1,-4.571609305E0,3.896792756E1
1.236770042E0,2.979359624E1,-2.585792192E1,-5.076063802E0,3.977507922E1
1.246840042E0,3.191352533E1,-2.492239549E1,-5.875208613E0,4.091597453E1
1.256911042E0,3.400502057E1,-2.390242590E1,-7.322835367E0,4.220534689E1
1.266981042E0,3.583144282E1,-2.274519643E1,-9.137001851E0,4.341337418E1
1.277051042E0,3.724406931E1,-2.291528492E1,-1.020328840E1,4.490365326E1
1.287121042E0,3.650184948E1,-2.354236138E1,-8.429675283E0,4.424575935E1
1.297191042E0,3.277675445E1,-2.233075280E1,-5.402167697E0,4.002701049E1
1.307261042E0,2.828447198E1,-2.171676476E1,-2.670164942E0,3.575974004E1
1.317331042E0,2.269820353E1,-2.013056718E1,6.177404997E-1,3.034517724E1
1.327401042E0,1.771410591E1,-1.781005404E1,2.428562669E0,2.523659029E1
1.337471042E0,1.340135284E1,-1.624891528E1,3.005666774E0,2.127575001E1
1.347541042E0,9.590169250E0,-1.595730412E1,1.872405629E0,1.871130150E1
1.357612042E0,4.962388083E0,-1.849718491E1,4.332856965E-1,1.915617084E1
1.367682042E0,-1.081208646E-1,-2.405759229E1,8.512370700E-1,2.407289018E1
1.377752042E0,-3.205244815E0,-2.988553786E1,3.014170087E0,3.020768427E1
1.387822042E0,-6.191469305E0,-3.440635006E1,6.261275119E0,3.551527535E1
1.397892042E0,-1.038753885E1,-3.879233717E1,1.273356105E1,4.212944295E1
1.407962042E0,-1.602202811E1,-4.341024356E1,2.314195574E1,5.173687994E1
1.418032042E0,-2.926846716E1,-3.871812665E1,3.770818387E1,6.146253844E1
1.428102042E0,-3.279431949E1,-5.298255190E1,2.677702704E1,6.782055274E1
1.438172042E0,-1.699718698E1,-4.077161967E1,3.266021710E1,5.493559062E1
1.448242042E0,-1.661552869E1,-3.860293650E1,2.272565972E1,4.777779934E1
1.458312042E0,-2.242255409E1,-3.612460584E1,2.415832812E1,4.890176783E1
1.468383042E0,-2.370221256E1,-3.373987975E1,2.241610812E1,4.693246498E1
1.478453042E0,-2.110650489E1,-3.187765851E1,2.072914664E1,4.348985147E1
1.488523042E0,-1.640978973E1,-2.999398968E1,1.871120937E1,3.897473505E1
1.498593042E0,-9.860916384E0,-2.838471899E1,1.451823418E1,3.337227993E1
1.508663042E0,-3.278743147E0,-2.692910610E1,1.048541890E1,2.908386016E1
1.518733042E0,3.100761504E0,-2.637977423E1,7.563975710E0,2.761740282E1
1.528803042E0,9.555972978E0,-2.708170674E1,6.184535676E0,2.937658831E1
1.538873042E0,1.718773371E1,-2.914043653E1,6.004628545E0,3.436042483E1
1.548943042E0,2.446756163E1,-3.115762535E1,7.281883807E0,4.028008219E1
1.559014042E0,2.867152257E1,-3.218039693E1,1.011000660E1,4.427015232E1
1.569084042E0,3.083405681E1,-3.281441286E1,1.365711590E1,4.705360311E1
1.579154042E0,3.099363902E1,-3.368017734E1,1.622362491E1,4.856095150E1
1.589224042E0,2.934279930E1,-3.386716661E1,1.805751171E1,4.831209553E1
1.599294042E0,2.703878350E1,-3.310095215E1,1.755239999E1,4.620449753E1
1.609364042E0,2.427571682E1,-3.179489935E1,1.466116118E1,4.260487882E1
1.619434042E0,2.137173693E1,-3.035480498E1,1.099091654E1,3.871647674E1
1.629504042E0,1.852467384E1,-2.908249530E1,7.851064643E0,3.536374258E1
1.639574042E0,1.550900745E1,-2.817136812E1,6.249262015E0,3.275986217E1
1.649644042E0,1.263525766E1,-2.782479429E1,5.613358601E0,3.107054406E1
1.659715042E0,1.003233687E1,-2.812280816E1,5.816800776E0,3.041998181E1
1.669785042E0,7.625364457E0,-2.829676283E1,6.714555370E0,3.006556541E1
1.679855042E0,5.685201586E0,-2.854037654E1,7.126531473E0,2.996100901E1
1.689925042E0,4.442571196E0,-2.881634875E1,7.107481245E0,3.001057620E1
1.699995042E0,3.458888844E0,-2.878423818E1,7.165948724E0,2.986380921E1
1.710065042E0,2.497015437E0,-2.827631629E1,6.906812990E0,2.921453772E1
1.720135042E0,2.590328228E0,-2.842047822E1,5.788842899E0,2.911947947E1
1.730205042E0,3.729301518E0,-2.909310682E1,4.154377724E0,2.962389928E1
1.740275042E0,5.174885255E0,-2.919626808E1,3.149647150E0,2.981814522E1
1.750345042E0,6.768129314E0,-2.883725372E1,2.564622114E0,2.973166768E1
1.760416042E0,8.622657373E0,-2.910623967E1,9.817855880E-1,3.037247620E1
1.770486042E0,9.478114963E0,-2.955369200E1,1.920819697E0,3.109573801E1
1.780556042E0,9.617206775E0,-3.035291984E1,4.149586515E0,3.210933629E1
1.790626042E0,9.521792495E0,-3.102271605E1,5.937544025E0,3.298981468E1
1.800696042E0,1.073990492E1,-3.122757910E1,6.494877816E0,3.365547047E1
1.810766042E0,1.391959741E1,-3.084980687E1,6.824853737E0,3.452599607E1
1.820836042E0,1.815470764E1,-2.872784296E1,8.039813933E0,3.492164055E1
1.830906042E0,2.450711688E1,-2.736821563E1,8.301866258E0,3.766349675E1
1.840976042E0,3.124408696E1,-2.741424959E1,8.320147578E0,4.239055209E1
1.851047042E0,3.779392977E1,-2.755881849E1,9.090656819E0,4.764986512E1
1.861117042E0,4.442164347E1,-2.605866619E1,1.049187890E1,5.255869115E1
1.871187042E0,5.232060031E1,-2.377726274E1,1.365738019E1,5.907052966E1
1.881257042E0,6.254238463E1,-2.124978272E1,1.772729839E1,6.839122933E1
1.891327042E0,7.060281351E1,-1.628371674E1,2.078760944E1,7.537931687E1
1.901397042E0,7.129778549E1,-1.009699772E1,2.214776536E1,7.533821799E1
1.911467042E0,7.134037661E1,-4.822991631E0,2.127722488E1,7.460181554E1
1.921537042E0,7.146609175E1,-1.761144517E0,1.978466695E1,7.417504261E1
1.931607542E0,7.140383060E1,-1.038724532E0,1.852016914E1,7.377386148E1
1.941678542E0,7.091976534E1,-1.462300342E0,1.963853100E1,7.360314761E1
1.951748542E0,6.417694336E1,-2.543316615E0,2.259261217E1,6.808505448E1
1.961818542E0,5.254610169E1,-2.862226095E0,2.410936588E1,5.788390678E1
1.971888542E0,4.282159734E1,-2.701738152E0,2.231369765E1,4.836206872E1
1.981958542E0,3.485884971E1,-3.340389757E0,1.711289987E1,3.897626135E1
1.992028542E0,2.830955654E1,-5.558062652E0,1.118808816E1,3.094343821E1
2.002098542E0,2.335071070E1,-9.419927566E0,7.033319839E0,2.614303566E1
2.012168542E0,1.942925330E1,-1.361536795E1,3.868303868E0,2.403825915E1
2.022238542E0,1.659434306E1,-1.815300844E1,1.699802547E0,2.465346356E1
2.032309542E0,1.460006245E1,-2.207282277E1,1.039676385E0,2.648494394E1
2.042379542E0,1.235310027E1,-2.520763202E1,9.314122637E-1,2.808720932E1
2.052449542E0,1.077380591E1,-2.817276911E1,1.079767308E0,3.018187719E1
2.062519542E0,9.614907065E0,-3.055551417E1,2.223116069E0,3.210962673E1
2.072589542E0,9.169669075E0,-3.224283817E1,3.471515322E0,3.370066562E1
2.082659542E0,9.643578887E0,-3.313098813E1,3.732186827E0,3.470720684E1
2.092729542E0,1.110593010E1,-3.327834732E1,3.211318903E0,3.522928686E1
2.102799542E0,1.351998349E1,-3.310393189E1,2.618927545E0,3.585413563E1
2.112869542E0,1.632580968E1,-3.334524882E1,2.161840757E0,3.719020350E1
2.122940542E0,1.932571665E1,-3.348749287E1,2.074737124E0,3.871950461E1
2.133010542E0,2.194693923E1,-3.333406427E1,2.750813541E0,4.000493666E1
2.143080542E0,2.438757406E1,-3.264719419E1,3.734858420E0,4.092117085E1
2.153150542E0,2.621190768E1,-3.164685721E1,3.573317685E0,4.124750023E1
2.163220542E0,2.787182930E1,-3.007449414E1,2.893376552E0,4.110578662E1
2.173290542E0,2.898857030E1,-2.877239874E1,1.466736624E0,4.086978656E1
2.183360542E0,2.972805831E1,-2.773918638E1,3.473678792E-1,4.066129088E1
2.193430542E0,2.992858038E1,-2.661861194E1,-3.157364890E-1,4.005458918E1
2.203500542E0,2.983314213E1,-2.556851282E1,-1.080202925E-1,3.929092625E1
2.213571542E0,2.982299838E1,-2.432292257E1,1.103102961E0,3.849977442E1
2.223641542E0,2.938890109E1,-2.346008637E1,1.784391292E0,3.764660957E1
2.233711542E0,2.836699491E1,-2.267931235E1,2.945181713E0,3.643777852E1
2.243781542E0,2.642785705E1,-2.153613491E1,3.997098148E0,3.432511513E1
2.253851542E0,2.332917423E1,-2.027800355E1,4.209723959E0,3.119566595E1
2.263921542E0,1.995706392E1,-1.925736153E1,3.489929373E0,2.795192266E1
2.273991542E0,1.645222882E1,-1.894336020E1,2.375868731E0,2.520260862E1
2.284061542E0,1.195750923E1,-1.956584309E1,2.472934849E0,2.306338331E1
2.294131542E0,6.018484107E0,-2.137615041E1,3.954766645E0,2.255664285E1
2.304201542E0,-1.799796367E-1,-2.475243330E1,6.720466905E0,2.564917196E1
2.314272542E0,-5.831624637E0,-3.026763937E1,9.828923929E0,3.235344780E1
2.324342542E0,-1.179093258E1,-3.544831922E1,1.415543316E1,3.994978991E1
2.334412542E0,-1.640762743E1,-3.984208546E1,1.925585412E1,4.719523206E1
2.344482542E0,-1.978575453E1,-4.315428988E1,2.452658576E1,5.343521523E1
2.354552542E0,-2.449088033E1,-4.363772364E1,2.986853884E1,5.827678573E1
2.364622542E0,-2.999344472E1,-4.331371772E1,3.284986570E1,6.208702397E1
2.374692542E0,-3.364064548E1,-4.203413176E1,3.279206948E1,6.303872684E1
2.384762542E0,-3.339139037E1,-4.011995918E1,2.936683370E1,5.989162710E1
2.394832542E0,-2.963675287E1,-3.828582796E1,2.406688936E1,5.406807660E1
2.404902542E0,-2.339628623E1,-3.667992059E1,1.864666313E1,4.733392895E1
2.414972542E0,-1.624520932E1,-3.524024020E1,1.362590931E1,4.112720219E1
2.425043542E0,-9.418055872E0,-3.436865423E1,9.831439401E0,3.696703087E1
2.435113542E0,-2.419269104E0,-3.462184335E1,6.857685853E0,3.537729152E1
2.445183542E0,5.401174255E0,-3.525526287E1,4.287227633E0,3.592334288E1
2.455253542E0,1.371490393E1,-3.671157507E1,3.956369075E0,3.938897296E1
2.465323542E0,2.164408854E1,-3.913781874E1,6.293669279E0,4.516465097E1
2.475393542E0,2.595254157E1,-4.121547947E1,8.929494692E0,4.951753262E1
2.485463542E0,2.735260824E1,-4.268166646E1,1.309588844E1,5.235830520E1
2.495533542E0,2.773444546E1,-4.398547860E1,1.683706683E1,5.465719177E1
2.505603542E0,2.633950562E1,-4.420929131E1,1.870631759E1,5.475543180E1
2.515674542E0,2.368021299E1,-4.305645895E1,1.930187171E1,5.279368708E1
2.525744542E0,2.096788612E1,-4.154395266E1,1.740062849E1,4.968233209E1
2.535814542E0,1.831433546E1,-4.013768794E1,1.417380277E1,4.633946008E1
2.545884542E0,1.595100316E1,-3.872015446E1,1.071288494E1,4.322558001E1
2.555954542E0,1.371726270E1,-3.757107835E1,7.898721789E0,4.076933934E1
2.566024542E0,1.159594314E1,-3.673684206E1,6.098864611E0,3.900330257E1
2.576094542E0,9.146669637E0,-3.602395187E1,5.580692546E0,3.758365074E1
2.586164542E0,6.841328267E0,-3.542471985E1,5.701259794E0,3.652696144E1
2.596234542E0,4.606304344E0,-3.561800308E1,5.747007240E0,3.637153111E1
2.606305542E0,2.556310882E0,-3.565023059E1,6.524326149E0,3.633236158E1
2.616375542E0,1.373165386E0,-3.502328745E1,6.806085345E0,3.570488825E1
2.626445542E0,1.264073299E0,-3.453558522E1,5.636790733E0,3.501539573E1
2.636515542E0,1.734135643E0,-3.360287247E1,4.360193283E0,3.392891908E1
2.646585542E0,2.409800708E0,-3.234589418E1,2.935863590E0,3.256813327E1
2.656655542E0,2.948649112E0,-3.102136652E1,1.906548690E0,3.121945932E1
2.666725542E0,3.561941927E0,-2.976874791E1,1.563496934E0,3.002183048E1
2.676795542E0,5.017326182E0,-2.899919118E1,1.271259820E0,2.945747363E1
2.686865542E0,6.696538344E0,-2.834962166E1,1.187941236E0,2.915400278E1
2.696935542E0,8.563960683E0,-2.861694232E1,1.627916147E0,2.991522892E1
2.707006542E0,1.056939778E1,-2.795259572E1,3.514264900E0,3.009002882E1
2.717076542E0,1.294310655E1,-2.681186007E1,6.365521619E0,3.044535618E1
2.727146542E0,1.746173657E1,-2.657766739E1,8.925388777E0,3.302949005E1
2.737216542E0,2.433096833E1,-2.698481838E1,9.766461632E0,3.762393142E1
2.747286542E0,3.212132835E1,-2.751455740E1,8.845491253E0,4.320964383E1
2.757356542E0,3.914788764E1,-2.727398658E1,7.573994329E0,4.830934527E1
2.767426542E0,4.579680100E1,-2.722163763E1,7.891949544E0,5.385765874E1
2.777496542E0,5.286544387E1,-2.677000337E1,9.904754130E0,6.007905117E1
2.787567542E0,6.078313052E1,-2.440482101E1,1.244785440E1,6.667183306E1
2.797637542E0,6.893905612E1,-2.013152846E1,1.550552835E1,7.347307879E1
2.807707542E0,7.330590646E1,-1.479083371E1,1.891730033E1,7.713876415E1
2.817777542E0,7.330251040E1,-1.095824814E1,2.023703562E1,7.683019487E1
2.827847542E0,7.323925756E1,-9.469631238E0,1.969242361E1,7.642940737E1
2.837917542E0,7.264694396E1,-9.258522195E0,1.723478274E1,7.523520743E1
2.847987542E0,6.770264600E1,-9.734905379E0,1.390181018E1,6.979739955E1
2.858057542E0,5.975488127E1,-1.014404675E1,1.137468450E1,6.166790874E1
2.868127542E0,5.142473203E1,-1.109882105E1,9.449146103E0,5.345066188E1
2.878198542E0,4.291224322E1,-1.291862776E1,8.270508810E0,4.557140416E1
2.888268542E0,3.517445902E1,-1.520917626E1,7.334356720E0,3.901736022E1
2.898338542E0,2.872442818E1,-1.772277499E1,6.285976682E0,3.433224476E1
2.908408542E0,2.371375730E1,-1.996702055E1,5.434400473E0,3.147311398E1
2.918478542E0,1.940018445E1,-2.180512788E1,4.044389259E0,2.946502746E1
2.928552042E0,1.586415095E1,-2.377138980E1,2.803864451E0,2.871605673E1
2.938622042E0,1.320935483E1,-2.582105406E1,1.752770135E0,2.905660151E1
2.948692042E0,1.059950743E1,-2.777666703E1,1.224793532E0,2.975555256E1
2.958762042E0,8.209238176E0,-2.971575343E1,8.636301704E-1,3.084093790E1
2.968833042E0,5.929055037E0,-3.125659065E1,7.134597123E-1,3.182196061E1
2.978903042E0,3.547515677E0,-3.175637322E1,2.561899431E-1,3.195493297E1
2.988973042E0,1.743524517E0,-3.205235226E1,-9.595156632E-2,3.209988115E1
2.999043042E0,7.613560098E-1,-3.199953319E1,8.501455410E-1,3.201987718E1
3.009113042E0,2.222263545E-1,-3.155916067E1,1.601938283E0,3.160057298E1
3.019183042E0,1.037962639E-1,-3.104929984E1,2.880131439E0,3.118276689E1
3.029253042E0,4.255118233E-1,-3.039214296E1,4.806799229E0,3.077285708E1
3.039323042E0,1.838593812E0,-2.940691987E1,4.886117586E0,2.986672912E1
3.049393042E0,4.953066452E0,-2.826312964E1,4.896620355E0,2.910866289E1
3.059463042E0,1.012889428E1,-2.704432666E1,4.630334061E0,2.924773662E1
3.069534042E0,1.708693122E1,-2.597617601E1,4.163888805E0,3.136977699E1
3.079604042E0,2.475656611E1,-2.475066978E1,4.274629222E0,3.526692041E1
3.089674042E0,3.159140222E1,-2.404024243E1,4.587162899E0,3.996238248E1
3.099744042E0,3.619578984E1,-2.428209497E1,4.876761457E0,4.385815934E1
3.109814042E0,3.818438345E1,-2.529181322E1,4.348026689E0,4.600682874E1
3.119884042E0,3.810011571E1,-2.564005935E1,3.315103765E0,4.604368984E1
3.129954042E0,3.656978711E1,-2.509784236E1,2.414655066E0,4.441938293E1
3.140024042E0,3.387658999E1,-2.410226970E1,2.107337983E0,4.162911994E1
3.150094042E0,3.117242816E1,-2.280756050E1,1.642300444E0,3.866008593E1
3.160165042E0,2.878678055E1,-2.141252009E1,1.052007359E0,3.589263811E1
3.170235042E0,2.633438112E1,-1.998074514E1,6.421704590E-1,3.306270086E1
3.180305042E0,2.350531576E1,-1.849932966E1,4.553833477E-1,2.991542146E1
3.190375042E0,2.036758991E1,-1.717010552E1,1.295071728E0,2.667074152E1
3.200445042E0,1.741234397E1,-1.589527568E1,2.763425692E0,2.373786075E1
3.210515042E0,1.443177958E1,-1.575809533E1,2.860831534E0,2.155871488E1
3.220585042E0,1.112062064E1,-1.704067623E1,2.332340888E0,2.048152006E1
3.230655042E0,7.002794450E0,-2.009979679E1,4.056970128E0,2.166794793E1
3.240725042E0,8.238142133E-1,-2.385192935E1,6.561340778E0,2.475165441E1
3.250796042E0,-6.806374782E0,-2.732078068E1,9.570741291E0,2.973803765E1
3.260866042E0,-1.395940993E1,-3.336672448E1,1.297118137E1,3.842466622E1
3.270936042E0,-2.146697638E1,-4.044851189E1,1.637103906E1,4.863048538E1
3.281006042E0,-2.969216342E1,-4.231305330E1,2.176696193E1,5.608760719E1
3.291076042E0,-3.594391284E1,-4.116418769E1,2.657091971E1,6.076568927E1
3.301146042E0,-3.910922351E1,-3.965129315E1,2.991690700E1,6.322007384E1
3.311216042E0,-3.898664015E1,-3.828883577E1,3.098040326E1,6.281543155E1
3.321286042E0,-3.595108153E1,-3.674930833E1,2.815002578E1,5.861242084E1
3.331356042E0,-3.034654638E1,-3.526164335E1,2.340940037E1,5.207971193E1
3.341426042E0,-2.378047871E1,-3.380307178E1,1.882136624E1,4.541368358E1
3.351496042E0,-1.725303073E1,-3.250371287E1,1.500773734E1,3.974154753E1
3.361567042E0,-1.052098166E1,-3.175098443E1,1.143449216E1,3.534916800E1
3.371637042E0,-3.644944323E0,-3.176731687E1,8.016309296E0,3.296527347E1
3.381707042E0,2.920284269E0,-3.182950318E1,5.102527131E0,3.236790255E1
3.391777042E0,9.576995473E0,-3.279525270E1,4.103171318E0,3.441051376E1
3.401847042E0,1.650783233E1,-3.488211227E1,6.525392096E0,3.913886849E1
3.411917042E0,2.256130618E1,-3.698724323E1,8.143044187E0,4.408375967E1
3.421987042E0,2.594838771E1,-3.796009127E1,9.343095737E0,4.692100587E1
3.432057042E0,2.586998356E1,-3.719408497E1,1.291033407E1,4.710979444E1
3.442127042E0,2.392256371E1,-3.629774423E1,1.690156512E1,4.664202177E1
3.452197042E0,2.103438299E1,-3.527778868E1,1.934316708E1,4.539962285E1
3.462268042E0,1.738402590E1,-3.368192214E1,1.915011073E1,4.246649240E1
3.472338042E0,1.376423104E1,-3.225670309E1,1.695756040E1,3.895520254E1
3.482408042E0,1.055920140E1,-3.093750107E1,1.405995163E1,3.558522090E1
3.492478042E0,7.659011675E0,-2.961672966E1,1.107255185E1,3.253325284E1
3.502548042E0,5.007692894E0,-2.858580707E1,9.044557371E0,3.039785144E1
3.512618042E0,2.776592453E0,-2.767137037E1,7.848239268E0,2.889652338E1
3.522688042E0,1.254150574E0,-2.736045286E1,6.781203103E0,2.821616540E1
3.532758042E0,2.954481125E-2,-2.731796933E1,5.651655525E0,2.789647884E1
3.542828042E0,-9.770019078E-1,-2.711673624E1,5.237547526E0,2.763519171E1
3.552899042E0,-1.536957591E0,-2.714592788E1,4.564792036E0,2.756992864E1
3.562969042E0,-1.949897316E0,-2.728277377E1,3.515126195E0,2.757730872E1
3.573039042E0,-2.324543041E0,-2.720860535E1,3.000731431E0,2.747209666E1
3.583109042E0,-2.701059290E0,-2.669103555E1,2.848183422E0,2.697812538E1
3.593179042E0,-2.997496752E0,-2.634944121E1,2.901074704E0,2.667759872E1
3.603249042E0,-2.841739790E0,-2.604003696E1,3.591339973E0,2.643968103E1
3.613319042E0,-1.270798182E0,-2.611230387E1,3.386663744E0,2.636165459E1
3.623389042E0,1.585432178E0,-2.708648041E1,1.779479046E0,2.719113020E1
3.633459042E0,4.591122633E0,-2.744520942E1,9.741201076E-1,2.784361394E1
3.643529042E0,6.417397531E0,-2.731285185E1,1.565541120E0,2.810028089E1
3.653600042E0,7.630960243E0,-2.748701702E1,3.442497637E0,2.873357703E1
3.663670042E0,9.380423777E0,-2.696580557E1,6.484060467E0,2.927780833E1
3.673740042E0,1.388008192E1,-2.670243996E1,8.814776999E0,3.135884672E1
3.683810042E0,2.125944934E1,-2.862543014E1,8.482221286E0,3.665143265E1
3.693880042E0,3.034508223E1,-3.152075616E1,5.817210665E0,4.413866813E1
3.703950042E0,3.831418462E1,-3.411273564E1,3.809286166E0,5.144089946E1
3.714020042E0,4.405744145E1,-3.370494146E1,6.285680228E0,5.582643641E1
3.724090042E0,5.037603624E1,-3.114608763E1,1.247669754E1,6.052678567E1
3.734160042E0,5.840729921E1,-2.822831766E1,1.877220402E1,6.753255632E1
3.744231042E0,6.664328021E1,-2.287625125E1,2.368934868E1,7.433595973E1
3.754301042E0,7.184601108E1,-1.522659746E1,2.532726138E1,7.768634852E1
3.764371042E0,7.210933225E1,-8.354988213E0,2.292677353E1,7.612620160E1
3.774441042E0,7.220718657E1,-3.221210638E0,1.878937027E1,7.468128564E1
3.784511042E0,7.218635177E1,1.593073905E-1,1.565909846E1,7.386543255E1
3.794581042E0,7.016459510E1,1.971764148E0,1.498267150E1,7.177352370E1
3.804651042E0,6.093824078E1,2.342602751E0,1.515126778E1,6.283723332E1
3.814721042E0,5.116065774E1,2.037986789E0,1.469871317E1,5.326930128E1
3.824792042E0,4.353854550E1,-4.524400055E-2,1.297103168E1,4.542966712E1
3.834862042E0,3.727800655E1,-3.490718163E0,1.102934444E1,3.903179889E1
3.844932042E0,3.171175896E1,-7.621475474E0,9.100210000E0,3.386054292E1
3.855002042E0,2.709353683E1,-1.218387015E1,7.458745124E0,3.062905987E1
3.865072042E0,2.345881636E1,-1.635440958E1,5.773268840E0,2.917384806E1
3.875142042E0,2.021777723E1,-1.995370761E1,3.474029624E0,2.861778897E1
3.885212042E0,1.673970484E1,-2.330259747E1,1.457183443E0,2.872894273E1
3.895282042E0,1.377886545E1,-2.624472226E1,1.077610343E0,2.966148721E1
3.905352042E0,1.153962042E1,-2.875585580E1,1.619996240E0,3.102718920E1
3.915422042E0,1.012800199E1,-3.113858448E1,2.360970025E0,3.282928643E1
3.925488958E0,9.948539250E0,-3.277385891E1,3.679477394E0,3.444760971E1
3.935558958E0,1.029890558E1,-3.352178796E1,5.182542769E0,3.544906873E1
3.945628958E0,1.126027320E1,-3.413132978E1,6.189019321E0,3.646978730E1
3.955698958E0,1.248741198E1,-3.434107175E1,6.784068239E0,3.716541738E1
3.965768958E0,1.372650130E1,-3.428780128E1,6.761280470E0,3.754710465E1
3.975838958E0,1.482290569E1,-3.364672658E1,6.544258722E0,3.734498715E1
3.985908958E0,1.611666998E1,-3.296738771E1,5.602761108E0,3.712124238E1
3.995978958E0,1.791199089E1,-3.211854040E1,4.486783455E0,3.704822912E1
4.006048958E0,1.953856817E1,-3.102987539E1,4.502029485E0,3.694424288E1
4.016118958E0,2.186610030E1,-2.978550603E1,5.469879624E0,3.735267454E1
4.026189958E0,2.441628389E1,-2.828650447E1,5.611430190E0,3.778583601E1
4.036259958E0,2.743033645E1,-2.682877022E1,5.374022709E0,3.874385615E1
4.046329958E0,3.032520872E1,-2.520345945E1,5.264006177E0,3.978118164E1
4.056399958E0,3.295529567E1,-2.356103738E1,4.409232126E0,4.075064813E1
4.066469958E0,3.479956830E1,-2.217723299E1,2.490370369E0,4.134055589E1
4.076539958E0,3.490013339E1,-2.153606240E1,1.424879916E0,4.103476060E1
4.086609958E0,3.374753960E1,-2.098344673E1,1.661176425E0,3.977387299E1
4.096679958E0,3.204500816E1,-2.033522674E1,2.084425961E0,3.800985170E1
4.106749958E0,3.017602520E1,-1.976611022E1,2.617489715E0,3.616825766E1
4.116820958E0,2.823317787E1,-1.956028356E1,3.810376672E0,3.455771977E1
4.126890958E0,2.563533480E1,-2.009741346E1,5.118451438E0,3.297385272E1
4.136960958E0,2.197922288E1,-2.061290400E1,6.259898100E0,3.077603570E1
4.147030958E0,1.668072748E1,-2.136662647E1,6.355635146E0,2.784193768E1
4.157100958E0,8.585246887E0,-2.383121149E1,6.637055204E0,2.618556104E1
4.167170958E0,-1.142348303E0,-2.578002064E1,8.106362264E0,2.704861425E1
4.177240958E0,-1.004732562E1,-2.870951778E1,8.069888502E0,3.146916370E1
4.187310958E0,-1.627623231E1,-3.411938509E1,6.519937813E0,3.836088850E1
4.197380958E0,-1.982757382E1,-3.776573918E1,7.346937590E0,4.328234318E1
4.207450958E0,-2.085942729E1,-4.108239684E1,1.231801463E1,4.769289802E1
4.217521958E0,-2.378380694E1,-4.427727337E1,1.906377893E1,5.375475865E1
4.227591958E0,-2.998006395E1,-4.521545211E1,2.588807952E1,6.011184580E1
4.237661958E0,-3.418475462E1,-4.436848994E1,2.915276012E1,6.314304214E1
4.247731958E0,-3.337961174E1,-4.244487761E1,2.685350161E1,6.030652256E1
4.257801958E0,-2.863680415E1,-3.999769156E1,2.109473094E1,5.352447623E1
4.267871958E0,-2.225287725E1,-3.700148938E1,1.474150543E1,4.562469446E1
4.277941958E0,-1.573628404E1,-3.425153450E1,8.840680164E0,3.871635155E1
4.288011958E0,-9.456508332E0,-3.205293230E1,4.233197021E0,3.368584237E1
4.298081958E0,-3.160301362E0,-3.039283995E1,1.172308412E0,3.057918462E1
4.308151958E0,2.929616425E0,-3.012909778E1,-9.898456094E-1,3.028737327E1
4.318221958E0,8.148486775E0,-3.128418951E1,-1.206080468E0,3.235047109E1
4.328292958E0,1.293298969E1,-3.334137797E1,6.576179257E-1,3.576789298E1
4.338362958E0,1.670428358E1,-3.554698513E1,4.328511899E0,3.951401343E1
4.348432958E0,1.918875849E1,-3.696837543E1,9.361572354E0,4.269084529E1
4.358502958E0,2.174125757E1,-3.776636132E1,1.184631390E1,4.515878078E1
4.368572958E0,2.282997638E1,-3.769766356E1,1.258894069E1,4.583451851E1
4.378642958E0,2.146548885E1,-3.640234624E1,1.276831573E1,4.414666364E1
4.388712958E0,1.902922657E1,-3.514033701E1,1.240147077E1,4.184197924E1
4.398782958E0,1.645997170E1,-3.360503126E1,1.097883385E1,3.899696895E1
4.408852958E0,1.369952926E1,-3.232901210E1,9.357115606E0,3.633727752E1
4.418923958E0,1.091543132E1,-3.109491747E1,7.728655522E0,3.384926365E1
4.428993958E0,8.557800057E0,-3.035865479E1,6.445978721E0,3.219370286E1
4.439063958E0,6.599852879E0,-2.980973690E1,5.500224919E0,3.102307119E1
4.449133958E0,4.924307506E0,-2.937142025E1,4.777847033E0,3.016217755E1
4.459203958E0,3.383156877E0,-2.918271423E1,4.507506280E0,2.972194767E1
4.469273958E0,1.840369027E0,-2.904112274E1,4.431839216E0,2.943492767E1
4.479343958E0,6.531696564E-1,-2.922966971E1,4.295909579E0,2.955088935E1
4.489413958E0,1.534654373E-1,-2.918025840E1,3.875027288E0,2.943682844E1
4.499483958E0,2.160856086E-1,-2.928826817E1,2.838045812E0,2.942624423E1
4.509554958E0,7.895179546E-1,-2.937982621E1,1.906880812E0,2.945222778E1
4.519624958E0,1.524629322E0,-2.895781395E1,1.292668815E0,2.902672003E1
4.529694958E0,1.941595439E0,-2.825531543E1,1.343968192E0,2.835381620E1
4.539764958E0,2.066365666E0,-2.719702085E1,1.748224802E0,2.733137574E1
4.549834958E0,2.505320823E0,-2.587411403E1,2.330719455E0,2.609939966E1
4.559904958E0,3.773097163E0,-2.468608377E1,2.533317584E0,2.510093011E1
4.569974958E0,6.201716550E0,-2.387024282E1,1.997039615E0,2.474344252E1
4.580044958E0,9.018668824E0,-2.285016331E1,7.348333320E-1,2.457654025E1
4.590114958E0,1.186520742E1,-2.134785223E1,-4.451321554E-1,2.442769094E1
4.600184958E0,1.425844005E1,-1.960367925E1,-3.683666924E-1,2.424341244E1
4.610255958E0,1.683369415E1,-1.762113284E1,1.095542218E0,2.439421641E1
4.620325958E0,1.988310365E1,-1.597903237E1,2.842035367E0,2.566601744E1
4.630395958E0,2.433842470E1,-1.649836452E1,4.379898400E0,2.972773888E1
4.640465958E0,2.883112817E1,-1.867133370E1,5.992192687E0,3.486773619E1
4.650535958E0,3.311924926E1,-2.102127354E1,9.307356386E0,4.031631798E1
4.660605958E0,3.725957846E1,-2.090313171E1,1.412161871E1,4.499596891E1
4.670675958E0,4.302471090E1,-1.767542891E1,1.922410608E1,5.033003865E1
4.680745958E0,5.369204837E1,-1.515545204E1,2.260503633E1,6.019560991E1
4.690815958E0,6.649910658E1,-1.283213224E1,2.156287539E1,7.107568072E1
4.700886958E0,7.201004653E1,-9.314888184E0,1.891248924E1,7.503263418E1
4.710956958E0,7.174506007E1,-6.604938787E0,1.845315303E1,7.437403927E1
4.721026958E0,7.173916140E1,-5.965769704E0,1.996784384E1,7.470483568E1
4.731096958E0,7.125582119E1,-7.188959856E0,2.272708878E1,7.513716632E1
4.741166958E0,6.548505906E1,-8.696191957E0,2.642690279E1,7.114982716E1
4.751236958E0,5.624004510E1,-8.408488482E0,2.799003193E1,6.338049573E1
4.761306958E0,4.887385380E1,-7.818128446E0,2.519128087E1,5.553717088E1
4.771376958E0,4.235646771E1,-8.611161747E0,1.984508506E1,4.756101202E1
4.781446958E0,3.569787838E1,-1.031085846E1,1.420930472E1,3.978136076E1
4.791517958E0,2.922055741E1,-1.294276741E1,9.823606471E0,3.343440515E1
4.801587958E0,2.341278006E1,-1.612267741E1,6.440115134E0,2.914745409E1
4.811657958E0,1.890194438E1,-1.915885583E1,4.385746492E0,2.726866389E1
4.821727958E0,1.594671949E1,-2.198252772E1,4.012031937E0,2.745224559E1
4.831797958E0,1.336614207E1,-2.486183704E1,3.121310374E0,2.839907170E1
4.841867958E0,1.123697439E1,-2.795117367E1,2.395882580E0,3.022048902E1
4.851937958E0,9.884750805E0,-3.075976677E1,2.442385486E0,3.240118512E1
4.862007958E0,9.050712150E0,-3.299830311E1,2.823202947E0,3.433327648E1
4.872077958E0,8.455343390E0,-3.432474866E1,2.956890178E0,3.547427803E1
4.882147958E0,8.377993498E0,-3.512560437E1,3.897936387E0,3.632069335E1
4.892218958E0,8.833262386E0,-3.502865753E1,4.157852139E0,3.636373341E1
4.902288958E0,9.926584125E0,-3.406176663E1,3.847816393E0,3.568678620E1
4.912358958E0,1.201776713E1,-3.293284704E1,3.701716401E0,3.525197647E1
4.922428958E0,1.477848088E1,-3.257803566E1,2.746382228E0,3.587860811E1
4.932499292E0,1.725101344E1,-3.185086189E1,1.417986926E0,3.625031799E1
4.942569292E0,1.955315580E1,-3.019918719E1,5.055537736E-1,3.598016666E1
4.952639292E0,2.217880238E1,-2.888379521E1,1.424445468E0,3.644450502E1
4.962709292E0,2.421549284E1,-2.732359436E1,1.779035243E0,3.655316496E1
4.972779292E0,2.622307586E1,-2.594522787E1,1.789988540E0,3.693248727E1
4.982850292E0,2.790395156E1,-2.422938817E1,2.139946150E0,3.701720050E1
4.992920292E0,2.911937018E1,-2.338587819E1,2.386041424E0,3.742365845E1
5.002990292E0,2.994906669E1,-2.237879119E1,3.476609124E0,3.754788545E1
5.013060292E0,3.051741839E1,-2.151418914E1,4.954708350E0,3.766593015E1
5.023130292E0,3.080737714E1,-2.062192508E1,6.470749866E0,3.763281658E1
5.033200292E0,3.072287785E1,-1.944003206E1,7.541910657E0,3.713072160E1
5.043270292E0,3.021007002E1,-1.839370556E1,7.750959141E0,3.620848109E1
5.053340292E0,2.958293276E1,-1.699902534E1,6.754654405E0,3.478134743E1
5.063410292E0,2.803403340E1,-1.582253866E1,5.897657243E0,3.272677984E1
5.073480292E0,2.510214591E1,-1.486664169E1,5.671676976E0,2.972040855E1
5.083551292E0,2.151557844E1,-1.441928759E1,5.263905605E0,2.642999569E1
5.093621292E0,1.758721080E1,-1.468762568E1,4.861752824E0,2.342376939E1
5.103691292E0,1.277718128E1,-1.592872643E1,4.897483404E0,2.099919120E1
5.113761292E0,8.038470243E0,-1.915126848E1,6.253102466E0,2.169076713E1
5.123831292E0,3.128391352E0,-2.548106420E1,7.169773972E0,2.665477676E1
5.133901292E0,-4.375242847E0,-3.122476074E1,8.174846023E0,3.257232784E1
5.143971292E0,-1.265295133E1,-3.532453834E1,1.152709218E1,3.925294945E1
5.154041292E0,-1.824407063E1,-3.998826117E1,1.539679353E1,4.657218479E1
5.164111292E0,-2.386491016E1,-4.298114213E1,1.815842647E1,5.240840551E1
5.174181292E0,-3.107707645E1,-4.336264255E1,2.062979543E1,5.719870548E1
5.184252292E0,-3.829236515E1,-4.263164703E1,2.207119490E1,6.140765589E1
5.194322292E0,-4.199856198E1,-4.067374663E1,2.207593582E1,6.249463830E1
5.204392292E0,-4.010063062E1,-3.762379685E1,1.865391367E1,5.806530083E1
5.214462292E0,-3.474121777E1,-3.653465470E1,1.371762288E1,5.224850604E1
5.224532292E0,-2.866248044E1,-3.442951205E1,9.279583865E0,4.574975150E1
5.234602292E0,-2.194104524E1,-3.029115219E1,5.368371960E0,3.778601308E1
5.244672292E0,-1.421768729E1,-2.909896573E1,3.063481118E0,3.253117513E1
5.254742292E0,-6.906079164E0,-2.777579463E1,2.221576497E0,2.870756170E1
5.264812292E0,-1.837469977E-1,-2.733036075E1,3.093510956E0,2.750549385E1
5.274882292E0,5.827446801E0,-2.849306087E1,6.191649984E0,2.973466300E1
5.284953292E0,1.170795475E1,-2.955395396E1,1.017276594E1,3.337660207E1
5.295023292E0,1.734719897E1,-3.034497698E1,1.243373454E1,3.709906596E1
5.305093292E0,2.243104191E1,-3.088546085E1,1.369951172E1,4.055539366E1
5.315163292E0,2.580063091E1,-3.088235247E1,1.381778686E1,4.254789634E1
5.325233292E0,2.898324232E1,-3.024601403E1,1.354448566E1,4.402616031E1
5.335303292E0,3.103644766E1,-2.815267808E1,1.264270818E1,4.376839540E1
5.345373292E0,3.017867048E1,-2.580959352E1,1.092109377E1,4.118443345E1
5.355443292E0,2.787045871E1,-2.438406339E1,9.638407609E0,3.826544025E1
5.365513292E0,2.506524297E1,-2.348217949E1,8.891134034E0,3.547860515E1
5.375584292E0,2.170026625E1,-2.273868965E1,8.643815523E0,3.259854459E1
5.385654292E0,1.766822163E1,-2.228977318E1,9.026754938E0,2.984095087E1
5.395724292E0,1.334687784E1,-2.240727882E1,9.482373490E0,2.775140896E1
5.405794292E0,8.830332931E0,-2.328021667E1,1.059140670E1,2.705773759E1
5.415864292E0,4.575960803E0,-2.383475958E1,1.223713712E1,2.718055751E1
5.425934292E0,1.250121258E0,-2.409641780E1,1.333941562E1,2.757063951E1
5.436004292E0,-6.441766387E-1,-2.429648847E1,1.399882835E1,2.804819978E1
5.446074292E0,-1.255714120E0,-2.411188720E1,1.407146246E1,2.794576852E1
5.456144292E0,-8.056738114E-1,-2.415164593E1,1.299670096E1,2.743839184E1
5.466215292E0,-1.254625368E-1,-2.379129840E1,1.132468379E1,2.634938487E1
5.476285292E0,1.804602778E-1,-2.171607712E1,9.992969903E0,2.390564827E1
5.486355292E0,1.908186203E-1,-2.099221287E1,8.536876965E0,2.266247298E1
5.496425292E0,-4.437235612E-1,-2.037824354E1,7.491632788E0,2.171622117E1
5.506495292E0,-1.160944203E0,-1.999875690E1,6.881526121E0,2.118144166E1
5.516565292E0,-1.210750785E0,-1.921696546E1,5.651736217E0,2.006738152E1
5.526635292E0,-1.029953123E0,-1.843316257E1,4.267688577E0,1.894875858E1
5.536705292E0,-1.234700396E0,-1.836857306E1,2.730814601E0,1.861145641E1
5.546775292E0,-1.185373870E0,-1.951312810E1,2.094948025E0,1.966102965E1
5.556845292E0,-1.552213562E-1,-2.253152982E1,4.614227614E0,2.299967448E1
5.566916292E0,2.774321979E0,-2.543690135E1,9.207347363E0,2.719389744E1
5.576986292E0,7.283034539E0,-2.707807679E1,1.249632080E1,3.069890663E1
5.587056292E0,1.407383175E1,-2.732986959E1,1.450163276E1,3.398958465E1
5.597126292E0,2.159685707E1,-2.672831272E1,1.626404671E1,3.801770840E1
5.607196292E0,3.003105635E1,-2.630561516E1,1.701092092E1,4.339609619E1
5.617266292E0,3.754375314E1,-2.550303336E1,1.799852968E1,4.882504666E1
5.627336292E0,4.403767787E1,-2.299379198E1,1.832438916E1,5.295106023E1
5.637406292E0,5.015498343E1,-2.077138693E1,1.937782938E1,5.764089823E1
5.647476292E0,5.659627619E1,-1.970536935E1,2.182948036E1,6.378061047E1
5.657546292E0,6.357394574E1,-1.788964751E1,2.459432459E1,7.047387364E1
5.667617292E0,7.058130511E1,-1.496636245E1,2.630647821E1,7.679676706E1
5.677687292E0,7.322249710E1,-1.280436381E1,2.770208462E1,7.932774613E1
5.687757292E0,7.299822129E1,-1.253817751E1,3.000525609E1,7.991408887E1
5.697827292E0,7.263246158E1,-1.218387366E1,3.204955963E1,8.031871217E1
5.707897292E0,6.701684712E1,-9.659650544E0,3.209907619E1,7.493275211E1
5.717967292E0,5.738780208E1,-7.166317683E0,2.872570521E1,6.457462409E1
5.728037292E0,4.847651912E1,-5.741948229E0,2.268057067E1,5.382704860E1
5.738107292E0,4.029923013E1,-5.466285925E0,1.611044269E1,4.374305196E1
5.748177292E0,3.326363573E1,-7.564737602E0,1.083534084E1,3.579244792E1
5.758248292E0,2.704535343E1,-1.068751036E1,7.586273482E0,3.005371134E1
5.768318292E0,2.171787339E1,-1.448155810E1,5.676696226E0,2.671341291E1
5.778388292E0,1.725161571E1,-1.825758355E1,3.981775812E0,2.543250165E1
5.788458292E0,1.288759776E1,-2.227596439E1,2.351508645E0,2.584256873E1
5.798528292E0,9.827049311E0,-2.580629101E1,1.863889452E0,2.767687912E1
5.808598292E0,7.334126925E0,-2.882831917E1,1.869467403E0,2.980530678E1
5.818668292E0,5.211180677E0,-3.156339405E1,2.367283556E0,3.207815892E1
5.828738292E0,4.149606396E0,-3.358793166E1,3.880379537E0,3.406502212E1
5.838808292E0,4.727289083E0,-3.520486688E1,5.895158143E0,3.600670499E1
5.848879292E0,7.067400920E0,-3.652054420E1,8.726667060E0,3.820802301E1
5.858949292E0,1.063969300E1,-3.733732070E1,1.167015834E1,4.053974815E1
5.869019292E0,1.526758059E1,-3.800799166E1,1.232597620E1,4.277424618E1
5.879089292E0,1.974271435E1,-3.733802237E1,1.115912924E1,4.368556798E1
5.889159292E0,2.356289212E1,-3.584613102E1,1.038305871E1,4.413573272E1
5.899229292E0,2.620523016E1,-3.418010492E1,9.283793861E0,4.405885256E1
5.909299292E0,2.814267700E1,-3.273183848E1,8.481755848E0,4.399231412E1
5.919369292E0,2.971202057E1,-3.148861284E1,9.005690929E0,4.422035022E1
5.929439417E0,3.053475188E1,-3.047517343E1,9.586826981E0,4.419292386E1
5.939509417E0,3.070164310E1,-2.954574680E1,1.032049935E1,4.384124485E1
5.949580417E0,3.051933861E1,-2.853979182E1,1.099087561E1,4.320589188E1
5.959650417E0,3.030992409E1,-2.727964200E1,1.126761731E1,4.230637737E1
5.969720417E0,2.976077933E1,-2.595657615E1,1.083080223E1,4.094818810E1
5.979790417E0,2.880332817E1,-2.439808268E1,1.039273351E1,3.915235704E1
5.989860417E0,2.711376351E1,-2.295801871E1,1.025871884E1,3.697929295E1
5.999930417E0,2.448500504E1,-2.177267583E1,1.021951092E1,3.432205251E1
6.010000417E0,2.103920578E1,-2.086612819E1,9.953688308E0,3.125890907E1
6.020070417E0,1.710167205E1,-1.984744032E1,9.526516460E0,2.787727730E1
6.030140417E0,1.253277000E1,-1.884306876E1,8.091099862E0,2.403325740E1
6.040211417E0,7.654400561E0,-1.896539836E1,7.005644968E0,2.161840060E1
6.050281417E0,2.353031845E0,-1.996530147E1,7.083594199E0,2.131495551E1
6.060351417E0,-2.291491070E0,-2.157230812E1,8.055362849E0,2.314096540E1
6.070421417E0,-6.301693413E0,-2.375851657E1,1.025221323E1,2.663242996E1
6.080491417E0,-1.005398443E1,-2.598852299E1,1.436261170E1,3.134917136E1
6.090561417E0,-1.284943415E1,-2.994904798E1,1.872232844E1,3.758429213E1
6.100631417E0,-1.649480941E1,-3.331254418E1,2.085435658E1,4.262286388E1
6.110701417E0,-2.043730977E1,-3.417966521E1,2.254443111E1,4.576226086E1
6.120771417E0,-2.090167459E1,-3.553555500E1,2.133089296E1,4.641834405E1
6.130841417E0,-1.986794767E1,-3.606820594E1,1.903868385E1,4.536653290E1
6.140911417E0,-1.966320391E1,-3.452022108E1,1.914980785E1,4.410218126E1
6.150982417E0,-2.074902016E1,-3.372223753E1,1.988013561E1,4.430497639E1
6.161052417E0,-2.363962864E1,-3.322752566E1,2.083782065E1,4.579427118E1
6.171122417E0,-2.547638643E1,-3.273885046E1,2.071644415E1,4.636862790E1
6.181192417E0,-2.482444293E1,-3.208140590E1,1.915096910E1,4.485787767E1
6.191262417E0,-2.080006401E1,-3.117772106E1,1.684484479E1,4.109065283E1
6.201332417E0,-1.451893116E1,-3.022547861E1,1.344630506E1,3.612730323E1
6.211402417E0,-7.221089721E0,-3.004746831E1,1.074902658E1,3.271904738E1
6.221472417E0,4.791956949E-1,-3.041310874E1,9.606161385E0,3.189772952E1
6.231542417E0,8.228154504E0,-3.143189953E1,1.022096337E1,3.406075347E1
6.241612417E0,1.541050759E1,-3.283716087E1,1.224084893E1,3.828317203E1
6.251683417E0,2.028013194E1,-3.372672819E1,1.385063301E1,4.172069008E1
6.261753417E0,2.383769488E1,-3.415676751E1,1.412442303E1,4.398203940E1
6.271823417E0,2.714793230E1,-3.410642065E1,1.285925163E1,4.544907601E1
6.281893417E0,3.060663053E1,-3.371745684E1,1.067347471E1,4.677131376E1
6.291963417E0,3.295814677E1,-3.272534573E1,8.497262664E0,4.721642897E1
6.302033417E0,3.244033373E1,-3.113089188E1,7.344189398E0,4.555704995E1
6.312103417E0,2.975583492E1,-3.001171844E1,7.761108738E0,4.296914898E1
6.322173417E0,2.479061796E1,-2.949356157E1,9.188122888E0,3.960891964E1
6.332243417E0,1.847034619E1,-2.940240114E1,1.075380726E1,3.634968022E1
6.342314417E0,1.287766568E1,-2.979203854E1,1.204775399E1,3.462005503E1
6.352384417E0,9.127566199E0,-3.018220921E1,1.458268102E1,3.474093843E1
6.362454417E0,7.369323655E0,-3.040406427E1,1.584769806E1,3.506941101E1
6.372524417E0,7.008683181E0,-3.033372226E1,1.535130570E1,3.471194222E1
6.382594417E0,7.282011861E0,-2.912703471E1,1.374765068E1,3.302135289E1
6.392664417E0,7.471510765E0,-2.737492355E1,1.143186209E1,3.059243997E1
6.402734417E0,7.196975219E0,-2.531493545E1,9.137125812E0,2.785910043E1
6.412804417E0,6.369742724E0,-2.319027246E1,7.623880434E0,2.522867241E1
6.422874417E0,5.395404807E0,-2.185313118E1,6.429939224E0,2.340969572E1
6.432944417E0,4.334602359E0,-2.041002900E1,5.221775247E0,2.150871912E1
6.443015417E0,3.121907374E0,-1.884275418E1,4.326579979E0,1.958353863E1
6.453085417E0,2.122227041E0,-1.733421464E1,3.297923768E0,1.777231403E1
6.463155417E0,1.575285505E0,-1.609161934E1,2.157755308E0,1.631188662E1
6.473225417E0,1.208183858E0,-1.514006334E1,1.398293065E0,1.525242439E1
6.483295417E0,8.527661169E-1,-1.469116675E1,1.122904995E0,1.475867562E1
6.493365417E0,1.355731328E0,-1.425913353E1,6.833592694E-1,1.433973069E1
6.503435417E0,2.930126887E0,-1.433544437E1,6.729037169E-1,1.464730037E1
6.513505417E0,6.074514467E0,-1.450007506E1,1.378214896E0,1.578136176E1
6.523575417E0,1.067445704E1,-1.409199671E1,2.175194482E0,1.781179035E1
6.533645417E0,1.690765792E1,-1.300291655E1,2.276259073E0,2.145054989E1
6.543716417E0,2.431153453E1,-1.133159052E1,2.043213615E0,2.690037875E1
6.553786417E0,3.094944343E1,-9.385215570E0,2.262148134E0,3.242017325E1
6.563856417E0,3.665945533E1,-8.309550084E0,4.330739104E0,3.783807063E1
6.573926417E0,4.271433602E1,-8.842445439E0,7.494966871E0,4.425921228E1
6.583996417E0,4.960842313E1,-1.075966968E1,1.051119108E1,5.183870441E1
6.594066417E0,5.586406446E1,-1.252051541E1,1.482756241E1,5.913893481E1
6.604136417E0,6.029498624E1,-1.238356777E1,2.110564652E1,6.507139488E1
6.614206417E0,6.503261086E1,-1.202164149E1,2.666677194E1,7.130832396E1
6.624276417E0,7.035058333E1,-1.152038542E1,3.174377598E1,7.803583260E1
6.634347417E0,7.252044296E1,-1.068954753E1,3.323159532E1,8.048490543E1
6.644417417E0,7.214128611E1,-1.092528622E1,3.094778983E1,7.925586878E1
6.654487417E0,7.170827874E1,-1.196083162E1,2.572564153E1,7.711645327E1
6.664557417E0,6.838782273E1,-1.270036290E1,1.869752923E1,7.202632237E1
6.674627417E0,5.967518606E1,-1.359747781E1,1.184471293E1,6.234032771E1
6.684697417E0,5.116239319E1,-1.549046943E1,8.422018354E0,5.411539073E1
6.694767417E0,4.416817836E1,-1.808743542E1,7.911430128E0,4.837947940E1
6.704837417E0,3.822678512E1,-2.148083662E1,7.711381677E0,4.452166719E1
6.714907417E0,3.220553995E1,-2.449653575E1,7.576986934E0,4.116658595E1
6.724978417E0,2.672354841E1,-2.729588089E1,7.339882339E0,3.889841932E1
6.735048417E0,2.172605013E1,-2.980823767E1,6.862931390E0,3.751869020E1
6.745118417E0,1.743971128E1,-3.225542606E1,6.605009539E0,3.725831707E1
6.755188417E0,1.390715921E1,-3.476014637E1,5.614894080E0,3.785767939E1
6.765258417E0,1.101461764E1,-3.656588117E1,4.773555177E0,3.848600131E1
6.775328417E0,8.729761992E0,-3.751110697E1,3.335073468E0,3.865765908E1
6.785398417E0,7.049228359E0,-3.818295439E1,2.221402835E0,3.889169907E1
6.795468417E0,6.127804821E0,-3.808460890E1,2.002346256E0,3.862637463E1
6.805538417E0,6.093243098E0,-3.785924083E1,2.634928451E0,3.843686480E1
6.815608417E0,6.873627117E0,-3.742167965E1,3.618838259E0,3.821943024E1
6.825679417E0,8.147703248E0,-3.744548250E1,4.556852102E0,3.859163289E1
6.835749417E0,1.009145222E1,-3.761787947E1,6.014992150E0,3.940967386E1
6.845819417E0,1.225405077E1,-3.743171348E1,7.415651729E0,4.007850826E1
6.855889417E0,1.452956140E1,-3.660772151E1,9.892819963E0,4.060912847E1
6.865959417E0,1.732651035E1,-3.548439654E1,1.234152278E1,4.137225572E1
6.876029417E0,2.026739436E1,-3.386629187E1,1.388082569E1,4.183742728E1
6.886099417E0,2.349085676E1,-3.193668966E1,1.432688638E1,4.215485940E1
6.896169417E0,2.742689361E1,-3.124183228E1,1.344755987E1,4.369351718E1
6.906239417E0,3.124927695E1,-3.049976214E1,1.114875745E1,4.506714538E1
6.916309417E0,3.299312950E1,-2.933782683E1,9.553227711E0,4.517210242E1
6.926380417E0,3.250467883E1,-2.822761600E1,9.603555865E0,4.410873764E1
6.936450917E0,3.067385246E1,-2.658534362E1,9.527740867E0,4.169464673E1
6.946520917E0,2.831106746E1,-2.441977585E1,8.473994254E0,3.833602185E1
6.956590917E0,2.587237156E1,-2.260256179E1,6.953360919E0,3.505145700E1
6.966660917E0,2.343846103E1,-2.092969678E1,6.197045209E0,3.202837855E1
6.976730917E0,2.075278343E1,-1.952646326E1,5.583222052E0,2.903675526E1
6.986800917E0,1.786624461E1,-1.806597146E1,5.554197643E0,2.600828969E1
6.996870917E0,1.451227352E1,-1.723042773E1,5.372410047E0,2.315937202E1
7.006940917E0,1.118355189E1,-1.736489498E1,4.537302521E0,2.114706894E1
7.017010917E0,7.199336325E0,-1.789379669E1,3.535383289E0,1.960911366E1
7.027081917E0,2.385730644E0,-1.935751264E1,3.080975111E0,1.974582017E1
7.037151917E0,-3.144665907E0,-2.100002008E1,2.864314721E0,2.142648048E1
7.047221917E0,-8.376374404E0,-2.354581123E1,3.849336669E0,2.528608842E1
7.057291917E0,-1.325470116E1,-2.590462481E1,6.471701208E0,2.980972334E1
7.067361917E0,-1.717520312E1,-2.899949758E1,1.049284603E1,3.529955070E1
7.077431917E0,-2.049589185E1,-3.214852726E1,1.440387433E1,4.075636127E1
7.087501917E0,-2.397749012E1,-3.374214847E1,1.665091955E1,4.461732553E1
7.097571917E0,-2.629148595E1,-3.462868693E1,1.658639786E1,4.653489858E1
7.107641917E0,-2.630415336E1,-3.484767685E1,1.430080663E1,4.594324908E1
7.117711917E0,-2.456869040E1,-3.542439943E1,1.146173668E1,4.460807136E1
7.127781917E0,-2.333820701E1,-3.467618269E1,1.017834535E1,4.301985898E1
7.137852917E0,-2.340881565E1,-3.254271614E1,1.050980880E1,4.144221404E1
7.147922917E0,-2.391705797E1,-3.106689294E1,1.112653803E1,4.075508983E1
7.157992917E0,-2.372075993E1,-2.946692166E1,1.214194445E1,3.972909184E1
7.168062917E0,-2.098307719E1,-2.788836054E1,1.195804718E1,3.689234438E1
7.178132917E0,-1.621115747E1,-2.628522241E1,1.026852930E1,3.254469600E1
7.188202917E0,-1.140298737E1,-2.499535003E1,8.991885653E0,2.890760543E1
7.198272917E0,-6.514387636E0,-2.486049452E1,7.858856642E0,2.687458022E1
7.208342917E0,-2.321734623E0,-2.523461809E1,7.071914971E0,2.630947326E1
7.218412917E0,2.273474629E0,-2.654319923E1,6.858099251E0,2.750897376E1
7.228482917E0,9.163577446E0,-2.952734211E1,6.620294160E0,3.161745370E1
7.238553917E0,1.637022864E1,-3.259335302E1,6.981472578E0,3.713558948E1
7.248623917E0,2.236821942E1,-3.491919064E1,9.008271890E0,4.243625899E1
7.258693917E0,2.609755486E1,-3.625214765E1,1.159012166E1,4.614793060E1
7.268763917E0,2.787540779E1,-3.676263530E1,1.346173937E1,4.805983917E1
7.278833917E0,2.777478657E1,-3.678784382E1,1.468723391E1,4.837870463E1
7.288903917E0,2.657015255E1,-3.625724642E1,1.605150042E1,4.773061481E1
7.298973917E0,2.511321118E1,-3.570818585E1,1.647649944E1,4.666072167E1
7.309043917E0,2.232408464E1,-3.519367999E1,1.565259401E1,4.451924938E1
7.319113917E0,1.871666365E1,-3.433266579E1,1.492348715E1,4.185398317E1
7.329183917E0,1.519410565E1,-3.321214982E1,1.374736065E1,3.902432148E1
7.339254917E0,1.145842365E1,-3.183581583E1,1.239386355E1,3.603363007E1
7.349324917E0,8.228288405E0,-3.044165719E1,1.096391059E1,3.338572386E1
7.359394917E0,5.810591617E0,-2.947431020E1,9.483894351E0,3.150305047E1
7.369464917E0,4.002632537E0,-2.824982138E1,8.040465313E0,2.964325484E1
7.379534917E0,2.710063418E0,-2.716871799E1,6.891105614E0,2.815974107E1
7.389604917E0,1.869080025E0,-2.636575962E1,5.974161043E0,2.709865939E1
7.399674917E0,1.154533900E0,-2.534985034E1,5.906615762E0,2.605448082E1
7.409744917E0,3.367317939E-1,-2.400001359E1,6.539984992E0,2.487740831E1
7.419814917E0,2.152956498E-1,-2.261018188E1,6.262352761E0,2.346238989E1
7.429884917E0,9.434014678E-1,-2.155163471E1,5.167168100E0,2.218248388E1
7.439955917E0,1.885387325E0,-2.046408768E1,3.891790379E0,2.091601306E1
7.450025917E0,2.811613766E0,-1.986535385E1,2.555193771E0,2.022539173E1
7.460095917E0,2.971873668E0,-1.940413366E1,2.273966380E0,1.976166388E1
7.470165917E0,3.126457093E0,-1.919812222E1,3.186561207E0,1.971032225E1
7.480235917E0,3.935714078E0,-1.888037283E1,4.586598058E0,1.982410667E1
7.490305917E0,5.752069759E0,-1.782618884E1,6.400558720E0,1.979460702E1
7.500375917E0,9.337181278E0,-1.699121580E1,7.948006800E0,2.095364362E1
7.510445917E0,1.556195165E1,-1.573734823E1,6.943798968E0,2.319600855E1
7.520515917E0,2.432417387E1,-1.435415780E1,4.523325337E0,2.860363181E1
7.530585917E0,3.300134600E1,-1.424170765E1,2.732676939E0,3.604694992E1
7.540656917E0,4.014723059E1,-1.579205478E1,4.146212087E0,4.334028372E1
7.550726917E0,4.595209837E1,-1.825749818E1,9.440522629E0,5.033939860E1
7.560796917E0,5.052896666E1,-1.951333626E1,1.892795396E1,5.737781980E1
7.570866917E0,5.623920310E1,-1.772491039E1,2.795808274E1,6.525852285E1
7.580936917E0,6.471304883E1,-1.406127544E1,3.231362924E1,7.368628632E1
7.591006917E0,7.146623676E1,-9.831814792E0,3.227658596E1,7.903078881E1
7.601076917E0,7.175042079E1,-5.265358638E0,2.920121482E1,7.764378812E1
7.611146917E0,7.161632777E1,-2.476444348E0,2.440124485E1,7.569974854E1
7.621216917E0,7.145663797E1,-2.006353353E0,1.987167819E1,7.419541871E1
7.631287917E0,6.942034746E1,-2.782440253E0,1.525830223E1,7.113186629E1
7.641357917E0,6.013093676E1,-4.359179376E0,1.268314051E1,6.160839272E1
7.651427917E0,4.950474966E1,-6.733434275E0,1.188088732E1,5.135382030E1
7.661497917E0,3.992550885E1,-9.575665816E0,1.113459549E1,4.254079042E1
7.671567917E0,3.189528435E1,-1.228220746E1,9.640255330E0,3.551191781E1
7.681637917E0,2.559036737E1,-1.520584452E1,7.755200711E0,3.076081513E1
7.691707917E0,2.041910154E1,-1.809044908E1,5.680058960E0,2.786515970E1
7.701777917E0,1.608652875E1,-2.083431934E1,3.928273496E0,2.661346656E1
7.711847917E0,1.291729460E1,-2.330046206E1,2.797029641E0,2.678789665E1
7.721917917E0,1.024858912E1,-2.534755823E1,1.971086456E0,2.741199499E1
7.731988917E0,8.365276389E0,-2.701556070E1,1.153978853E0,2.830459390E1
7.742058917E0,7.067096865E0,-2.840570815E1,4.947943121E-1,2.927580802E1
7.752128917E0,6.307171669E0,-2.920844666E1,8.583151976E-1,2.989398728E1
7.762198917E0,6.756296303E0,-2.999672617E1,1.386901081E0,3.077945119E1
7.772268917E0,8.489217480E0,-3.045440178E1,1.989687034E0,3.167800902E1
7.782338917E0,1.077102381E1,-3.054929507E1,2.534067489E0,3.249147398E1
7.792408917E0,1.276495826E1,-3.054875947E1,4.183350677E0,3.337171388E1
7.802478917E0,1.539366995E1,-3.095205128E1,5.882725793E0,3.506566720E1
7.812548917E0,1.827493692E1,-3.145603683E1,7.135698738E0,3.707254738E1
7.822618917E0,2.004807232E1,-3.176135739E1,8.016495237E0,3.840538013E1
7.832689917E0,2.125746597E1,-3.212841284E1,9.239711117E0,3.961675192E1
7.842759917E0,2.118630535E1,-3.196516560E1,1.035868167E1,3.972321276E1
7.852829917E0,2.017835296E1,-3.181142826E1,1.100145205E1,3.924493399E1
7.862899917E0,1.931221075E1,-3.136032493E1,1.206325028E1,3.875504446E1
7.872969917E0,1.896713966E1,-3.024767698E1,1.290660355E1,3.796386130E1
7.883039917E0,1.939741755E1,-2.895832382E1,1.261355981E1,3.706678051E1
7.893109917E0,2.027120675E1,-2.718033289E1,1.180969162E1,3.590489013E1
7.903179917E0,2.175565108E1,-2.506801221E1,1.067721342E1,3.486712601E1
7.913249917E0,2.275620323E1,-2.288973960E1,1.050953048E1,3.394459008E1
7.923319917E0,2.321608440E1,-2.104887707E1,1.046085708E1,3.303742320E1
7.933390208E0,2.290588494E1,-1.990373731E1,1.075438146E1,3.219464310E1
7.943460208E0,2.146411592E1,-1.862370813E1,1.116223762E1,3.053107147E1
7.953530208E0,1.932017583E1,-1.733090980E1,1.158459721E1,2.842239471E1
7.963600208E0,1.670276798E1,-1.600397191E1,1.171989008E1,2.593193781E1
7.973670208E0,1.306677867E1,-1.494907808E1,1.161795791E1,2.300418627E1
7.983740208E0,9.090313588E0,-1.492819650E1,1.044001293E1,2.035875050E1
7.993810208E0,4.793213516E0,-1.549841697E1,9.231715634E0,1.866548681E1
8.003880208E0,1.490895565E0,-1.677472264E1,8.628214567E0,1.892247806E1
8.013950208E0,-2.188723916E-1,-1.956503851E1,8.548577244E0,2.135220855E1
8.024021208E0,-2.073816773E0,-2.146715881E1,1.033021040E1,2.391344539E1
8.034091208E0,-4.616897160E0,-2.417539030E1,1.385800401E1,2.824552196E1
8.044161208E0,-9.007407086E0,-2.563579322E1,1.819140944E1,3.269945953E1
8.054231208E0,-1.492669143E1,-2.700961291E1,2.142694400E1,3.756912610E1
8.064301208E0,-2.109989754E1,-2.856264274E1,2.213819230E1,4.184650278E1
8.074371208E0,-2.539566211E1,-3.048689358E1,2.028116806E1,4.456137467E1
8.084441208E0,-2.756966858E1,-3.160732068E1,1.768061422E1,4.551607919E1
8.094511208E0,-2.923831190E1,-3.053871629E1,1.594343452E1,4.518501056E1
8.104581208E0,-3.092411797E1,-2.870733794E1,1.457420957E1,4.464101151E1
8.114651208E0,-3.217520694E1,-2.724463356E1,1.305491467E1,4.413552759E1
8.124721208E0,-3.220086920E1,-2.574310600E1,1.201975986E1,4.294273059E1
8.134791208E0,-3.011908969E1,-2.470811141E1,1.103299544E1,4.048922475E1
8.144862208E0,-2.571519841E1,-2.407076022E1,9.826352323E0,3.656815728E1
8.154932208E0,-1.929366923E1,-2.375091285E1,8.382152038E0,3.172714936E1
8.165002208E0,-1.174787369E1,-2.369062572E1,6.290258013E0,2.718134707E1
8.175072208E0,-3.892741721E0,-2.412927916E1,4.096250553E0,2.478214719E1
8.185142208E0,3.726591334E0,-2.520172166E1,2.951172478E0,2.564612400E1
8.195212208E0,1.065744398E1,-2.666612641E1,3.892366914E0,2.897954331E1
8.205282208E0,1.673517325E1,-2.832078319E1,6.026807034E0,3.344331304E1
8.215352208E0,2.125890672E1,-2.975081333E1,8.231520746E0,3.748079432E1
8.225422208E0,2.458895918E1,-3.060265676E1,1.120065265E1,4.082394070E1
8.235492208E0,2.615369280E1,-3.080560426E1,1.386702743E1,4.272347541E1
8.245563208E0,2.621471902E1,-3.092042019E1,1.586821360E1,4.353256345E1
8.255633208E0,2.566487025E1,-3.070984558E1,1.765599978E1,4.374373680E1
8.265703208E0,2.427423397E1,-2.973056092E1,1.719365577E1,4.205670560E1
8.275773208E0,2.277727192E1,-2.930822355E1,1.524360233E1,4.012659337E1
8.285843208E0,2.151004229E1,-2.864063992E1,1.298486736E1,3.809954009E1
8.295913208E0,1.969513906E1,-2.751766578E1,1.016047509E1,3.533207731E1
8.305983208E0,1.684044886E1,-2.645606402E1,8.484982342E0,3.248875138E1
8.316053208E0,1.290133170E1,-2.537182184E1,7.915826649E0,2.954376439E1
8.326123208E0,8.369479367E0,-2.502328335E1,8.167356910E0,2.762098139E1
8.336193208E0,4.050983748E0,-2.528752604E1,8.914317659E0,2.711705186E1
8.346264208E0,1.378547748E0,-2.526349398E1,1.010912952E1,2.724589917E1
8.356334208E0,6.144610888E-1,-2.526420968E1,9.838757776E0,2.711934748E1
8.366404208E0,1.062579417E0,-2.523689383E1,8.896768411E0,2.678026089E1
8.376474208E0,1.965262629E0,-2.474429865E1,7.942850141E0,2.606206902E1
8.386544208E0,2.577977740E0,-2.384841634E1,7.123202069E0,2.502264852E1
8.396614208E0,2.582716908E0,-2.291479843E1,6.194660130E0,2.387744182E1
8.406684208E0,2.285613449E0,-2.175215678E1,5.735742579E0,2.261148152E1
8.416754208E0,1.789055032E0,-2.064111330E1,5.275552089E0,2.137961006E1
8.426824208E0,1.430234796E0,-1.985339278E1,4.680926510E0,2.044783239E1
8.436894208E0,1.447271828E0,-1.898076835E1,3.915448213E0,1.943437413E1
8.446965208E0,1.510378488E0,-1.812038097E1,3.095340258E0,1.844479821E1
8.457035208E0,2.009063537E0,-1.785982320E1,2.344193194E0,1.812470311E1
8.467105208E0,2.952025294E0,-1.802041814E1,2.172553149E0,1.838939669E1
8.477175208E0,4.172639163E0,-1.863953771E1,3.127335637E0,1.935519341E1
8.487245208E0,5.976934962E0,-1.864717651E1,4.631325749E0,2.012188166E1
8.497315208E0,9.448348542E0,-1.821351192E1,5.860405802E0,2.133887679E1
8.507385208E0,1.470710392E1,-1.760022319E1,6.014592785E0,2.371164458E1
8.517455208E0,2.162158612E1,-1.710867584E1,4.742143057E0,2.797655619E1
8.527525208E0,2.926675977E1,-1.819636671E1,3.318734593E0,3.462174156E1
8.537595208E0,3.725675075E1,-2.144094925E1,3.746298789E0,4.314874895E1
8.547666208E0,4.596615040E1,-2.410156803E1,6.410054598E0,5.229590198E1
8.557736208E0,5.499345147E1,-2.487970146E1,1.165698340E1,6.147490960E1
8.567806208E0,6.432540650E1,-2.333733227E1,1.921463359E1,7.107454638E1
8.577876208E0,7.137360283E1,-1.882130426E1,2.618565602E1,7.832063110E1
8.587946208E0,7.207352390E1,-1.178838904E1,3.158442532E1,7.956842895E1
8.598016208E0,7.214817179E1,-4.577906756E0,3.213732400E1,7.911462265E1
8.608086208E0,7.223434104E1,1.143545812E-1,2.841659333E1,7.762290821E1
8.618156208E0,7.208570014E1,2.339253466E0,2.401976315E1,7.601821685E1
8.628226208E0,7.144068209E1,2.569212179E0,2.129727381E1,7.459186135E1
8.638297208E0,6.486016478E1,7.970175934E-1,1.954910485E1,6.774690925E1
8.648367208E0,5.421155711E1,-2.579643027E0,1.834618407E1,5.728987653E1
8.658437208E0,4.477329969E1,-6.833283083E0,1.666607319E1,4.826075133E1
8.668507208E0,3.627807654E1,-1.197677581E1,1.414980463E1,4.074013951E1
8.678577208E0,2.888451325E1,-1.700167179E1,1.116505714E1,3.532747444E1
8.688647208E0,2.217118463E1,-2.149553886E1,8.212341878E0,3.195406356E1
8.698717208E0,1.647750283E1,-2.530536005E1,5.718982705E0,3.073395695E1
8.708787208E0,1.221702270E1,-2.873214885E1,4.078800707E0,3.148695978E1
8.718857208E0,8.866144788E0,-3.128392755E1,3.885749328E0,3.274739217E1
8.728927208E0,5.825774497E0,-3.271168196E1,4.906676981E0,3.358674238E1
8.738998208E0,3.974371190E0,-3.396137695E1,7.005332726E0,3.490337287E1
8.749068208E0,3.272698295E0,-3.465261140E1,8.345799313E0,3.579338482E1
8.759138208E0,3.130893375E0,-3.406009900E1,8.772563025E0,3.531077314E1
8.769208208E0,4.190407682E0,-3.332714818E1,9.477774071E0,3.490109631E1
8.779278208E0,5.674621049E0,-3.253124156E1,1.009442494E1,3.453086180E1
8.789348208E0,6.820418040E0,-3.148381345E1,1.107393881E1,3.406436162E1
8.799418208E0,8.093637553E0,-3.063227408E1,1.269682065E1,3.413286450E1
8.809488208E0,9.608389174E0,-2.943393635E1,1.388338677E1,3.393267127E1
8.819558208E0,1.130203870E1,-2.819842669E1,1.429594526E1,3.357471366E1
8.829628208E0,1.346989741E1,-2.660965400E1,1.435308659E1,3.309868452E1
8.839698208E0,1.625550042E1,-2.488511364E1,1.411085398E1,3.290328821E1
8.849769208E0,1.929946850E1,-2.351525135E1,1.397606046E1,3.347785531E1
8.859839208E0,2.303356240E1,-2.274984848E1,1.331221554E1,3.500450950E1
8.869909208E0,2.703495942E1,-2.189366876E1,1.241797746E1,3.693816355E1
8.879979208E0,2.998122871E1,-2.103652541E1,1.216789790E1,3.859361626E1
8.890049208E0,3.121690443E1,-2.081457680E1,1.196234722E1,3.938069934E1
8.900119208E0,3.075841489E1,-2.138852078E1,1.230106122E1,3.943177671E1
8.910189208E0,2.931835093E1,-2.168412794E1,1.288693118E1,3.867609210E1
8.920259208E0,2.767872383E1,-2.157483646E1,1.278962181E1,3.735183727E1
8.930329583E0,2.642604441E1,-2.083587002E1,1.110867829E1,3.543828490E1
8.940399583E0,2.491725695E1,-1.960142690E1,8.472399133E0,3.281565446E1
8.950470583E0,2.310380617E1,-1.831738653E1,6.288698561E0,3.014730898E1
8.960540583E0,2.108267398E1,-1.762059606E1,4.381899025E0,2.782383127E1
8.970610583E0,1.844068326E1,-1.789269040E1,3.091826373E0,2.587984851E1
8.980680583E0,1.471160745E1,-1.834913341E1,2.827288105E0,2.368787978E1
8.990750583E0,9.752901939E0,-1.946992419E1,2.944266039E0,2.197420640E1
9.000820583E0,3.484108470E0,-2.055914469E1,2.338008009E0,2.098293888E1
9.010890583E0,-3.325800369E0,-2.279978838E1,9.391294920E-1,2.306020950E1
9.020960583E0,-1.110313513E1,-2.488014818E1,-2.026598533E-1,2.724596217E1
9.031030583E0,-1.793987041E1,-2.608159430E1,2.799009142E-1,3.165701906E1
9.041100583E0,-2.214271804E1,-3.016956519E1,1.174727844E0,3.744172287E1
9.051170583E0,-2.573250383E1,-3.213175043E1,5.701774934E0,4.155864984E1
9.061241583E0,-2.851512125E1,-3.351353403E1,1.083967830E1,4.531851419E1
9.071311583E0,-3.091646981E1,-3.513898981E1,1.360811506E1,4.874174295E1
9.081381583E0,-3.261028188E1,-3.499375199E1,1.346370170E1,4.969169374E1
9.091451583E0,-3.356073977E1,-3.419187419E1,1.187346369E1,4.935976757E1
9.101521583E0,-3.409113836E1,-3.295596226E1,1.127088707E1,4.873739897E1
9.111591583E0,-3.459800308E1,-3.216905567E1,1.158193555E1,4.864166106E1
9.121661583E0,-3.462340806E1,-3.142554711E1,1.226024999E1,4.833900213E1
9.131731583E0,-3.276557691E1,-3.075750273E1,1.290079142E1,4.675507912E1
9.141801583E0,-2.860764759E1,-3.037633209E1,1.246726949E1,4.354941860E1
9.151871583E0,-2.236780310E1,-3.007136471E1,1.124892727E1,3.912983460E1
9.161941583E0,-1.511385027E1,-2.971450680E1,1.002194169E1,3.481120078E1
9.172012583E0,-6.657053851E0,-2.990166214E1,8.479650850E0,3.178569243E1
9.182082583E0,1.625032446E0,-3.017875000E1,6.462429278E0,3.090567382E1
9.192152583E0,9.153898550E0,-3.090148690E1,5.180939462E0,3.264257780E1
9.202222583E0,1.677665223E1,-3.197898841E1,6.063059771E0,3.661792531E1
9.212292583E0,2.341425824E1,-3.234067145E1,7.602628144E0,4.064414439E1
9.222362583E0,2.751325932E1,-3.179895966E1,9.106220938E0,4.302413897E1
9.232432583E0,2.921025228E1,-3.115708039E1,1.067962130E1,4.402336661E1
9.242502583E0,2.871112694E1,-3.043526033E1,1.181674453E1,4.347722775E1
9.252572583E0,2.664560970E1,-2.977545584E1,1.201457221E1,4.172428828E1
9.262642583E0,2.466414268E1,-2.912459057E1,1.166398018E1,3.990751989E1
9.272712583E0,2.333656979E1,-2.832877750E1,1.060369053E1,3.820410158E1
9.282783583E0,2.249383399E1,-2.765500986E1,9.245116868E0,3.682722259E1
9.292853583E0,2.176407809E1,-2.679546448E1,8.375982056E0,3.552223370E1
9.302923583E0,2.031542105E1,-2.592976315E1,7.712262268E0,3.383116816E1
9.312993583E0,1.815298271E1,-2.520446985E1,7.749725379E0,3.201334604E1
9.323063583E0,1.515482054E1,-2.495338573E1,8.657783936E0,3.045155608E1
9.333133583E0,1.171853002E1,-2.469295776E1,9.879442703E0,2.906319833E1
9.343203583E0,7.895501143E0,-2.418527209E1,1.036624095E1,2.747226376E1
9.353273583E0,4.692177138E0,-2.353972311E1,1.046414907E1,2.618460437E1
9.363343583E0,2.863141184E0,-2.283039738E1,9.637272665E0,2.494597455E1
9.373413583E0,1.803463156E0,-2.195554399E1,7.973701220E0,2.342815192E1
9.383484583E0,1.176363895E0,-2.089698512E1,6.721321768E0,2.198281114E1
9.393554583E0,9.948020017E-1,-1.997454241E1,5.600412281E0,2.076864448E1
9.403624583E0,8.767052025E-1,-1.926877647E1,4.383685641E0,1.978057275E1
9.413694583E0,8.229622740E-1,-1.857787180E1,3.925503378E0,1.900589815E1
9.423764583E0,5.992852253E-1,-1.824729596E1,3.777211264E0,1.864377316E1
9.433834583E0,6.600395501E-1,-1.759942213E1,4.765936255E0,1.824525856E1
9.443904583E0,1.210098236E0,-1.704848109E1,5.154017712E0,1.785158099E1
9.453974583E0,2.450983232E0,-1.710949094E1,4.688934564E0,1.790888345E1
9.464044583E0,3.878064040E0,-1.745214714E1,4.633539797E0,1.846852759E1
9.474114583E0,5.368360850E0,-1.739800309E1,5.225030977E0,1.894230077E1
9.484184583E0,7.213168498E0,-1.702137808E1,6.292085268E0,1.952811943E1
9.494255583E0,1.059658031E1,-1.627274971E1,7.212126524E0,2.071484169E1
9.504325583E0,1.642276470E1,-1.532887929E1,7.275006312E0,2.361371334E1
9.514395583E0,2.462553936E1,-1.513031603E1,6.211601268E0,2.956226721E1
9.524465583E0,3.300312122E1,-1.557096337E1,5.130054653E0,3.685075808E1
9.534535583E0,3.985033705E1,-1.643503450E1,6.707896560E0,4.362517161E1
9.544605583E0,4.510342881E1,-1.663150562E1,9.963781772E0,4.909382056E1
9.554675583E0,4.948528077E1,-1.577839803E1,1.536167515E1,5.416393561E1
9.564745583E0,5.446334757E1,-1.363225471E1,2.155054011E1,6.013751222E1
9.574815583E0,6.043239113E1,-1.051278620E1,2.594147864E1,6.659994659E1
9.584886583E0,6.638180208E1,-6.671989394E0,2.750631049E1,7.216409223E1
9.594956583E0,7.100974229E1,-2.565017386E0,2.532604516E1,7.543455029E1
9.605026583E0,7.215536153E1,6.146739274E-1,2.083181907E1,7.510485142E1
9.615096583E0,7.186045604E1,1.716635512E0,1.606364743E1,7.365400701E1
9.625166583E0,7.018113102E1,1.778569804E0,1.247103510E1,7.130274314E1
9.635236583E0,6.310872723E1,8.836242127E-1,1.062354182E1,6.400274904E1
9.645306583E0,5.378031326E1,-1.411845887E0,1.023189649E1,5.476319119E1
9.655376583E0,4.462486929E1,-4.692130945E0,9.407532638E0,4.584644722E1
9.665446583E0,3.616428738E1,-8.177239873E0,7.958651072E0,3.792180192E1
9.675516583E0,2.884826285E1,-1.170859092E1,6.612372937E0,3.182823977E1
9.685587583E0,2.307389415E1,-1.525805781E1,5.668969131E0,2.823738888E1
9.695657583E0,1.836246623E1,-1.872618175E1,5.724922307E0,2.684445537E1
9.705727583E0,1.428482034E1,-2.155419813E1,5.742827066E0,2.648810321E1
9.715797583E0,1.044343121E1,-2.375344586E1,5.036606791E0,2.643215568E1
9.725867583E0,7.356382012E0,-2.563581661E1,4.170808692E0,2.699457528E1
9.735937583E0,5.612849894E0,-2.742809112E1,4.327887416E0,2.832904650E1
9.746007583E0,4.296618261E0,-2.855475602E1,4.153169689E0,2.917334122E1
9.756077583E0,3.203149173E0,-2.917296342E1,4.158402947E0,2.964142834E1
9.766147583E0,2.535526954E0,-2.923131629E1,5.200804793E0,2.979844156E1
9.776217583E0,2.691280407E0,-2.907568680E1,6.356785294E0,2.988389654E1
9.786287583E0,3.602766017E0,-2.909454758E1,6.881198677E0,3.011351054E1
9.796358583E0,5.393670523E0,-2.892499002E1,7.406603748E0,3.034146516E1
9.806428583E0,7.333698324E0,-2.802008896E1,8.130504248E0,3.008344421E1
9.816498583E0,9.095531643E0,-2.724340096E1,8.760753404E0,3.002802678E1
9.826568583E0,1.126899023E1,-2.622938150E1,9.380836591E0,3.004947071E1
9.836638583E0,1.380397340E1,-2.448621659E1,1.011650052E1,2.987420404E1
9.846708583E0,1.626456360E1,-2.305519710E1,1.123670892E1,3.037008017E1
9.856778583E0,1.900221711E1,-2.224738086E1,1.273964215E1,3.191126279E1
9.866848583E0,2.253702386E1,-2.162779586E1,1.423413434E1,3.432622290E1
9.876918583E0,2.612531977E1,-2.096968004E1,1.444145205E1,3.648034199E1
9.886988583E0,2.943031809E1,-1.994239676E1,1.310169005E1,3.788795446E1
9.897058583E0,3.203752840E1,-1.904093503E1,1.043581697E1,3.870228299E1
9.907129583E0,3.334346659E1,-1.799960790E1,8.457112173E0,3.882390237E1
9.917199583E0,3.374053230E1,-1.732420421E1,7.797252717E0,3.872142457E1
9.927269583E0,3.278363312E1,-1.700980176E1,7.585650169E0,3.770466874E1
9.937339167E0,3.040514717E1,-1.620888174E1,7.246090661E0,3.520946821E1
9.947409167E0,2.774697487E1,-1.510116182E1,7.077655767E0,3.237333646E1
9.957479167E0,2.485330946E1,-1.393861606E1,6.365737381E0,2.919751053E1
9.967549167E0,2.249610505E1,-1.252695787E1,5.098390810E0,2.624867624E1
9.977619167E0,1.925341934E1,-1.144131703E1,4.431244555E0,2.283054577E1
9.987689167E0,1.549714111E1,-1.112394186E1,4.230713124E0,1.953976455E1
9.997759167E0,1.218122604E1,-1.156136856E1,3.495874822E0,1.715426045E1
1.000783017E1,8.701954973E0,-1.288602018E1,3.566296349E0,1.595280559E1