"Time (s)","Linear Acceleration x (m/s^2)","Linear Acceleration y (m/s^2)","Linear Acceleration z (m/s^2)","Absolute acceleration (m/s^2)"
8.178249991E-3,4.638239497E-1,3.837703049E-1,4.166304874E-1,7.321156099E-1
1.824825001E-2,5.967527962E-1,-9.523652494E-2,7.516443694E-1,9.644444792E-1
2.831725002E-2,5.491032511E-1,-3.763115966E-1,-2.027627277E-1,6.958717712E-1
3.838624997E-2,3.083909243E-1,6.920939863E-1,1.360097444E-1,7.698036754E-1
4.845624999E-2,4.199680781E-1,9.400744021E-2,3.314188676E-1,5.431841780E-1
5.852525000E-2,3.728512144E-1,-1.918839830E-1,2.398245732E-1,4.830665761E-1
6.859425001E-2,1.954110235E-1,1.637009883E-1,4.813343140E-1,5.446707295E-1
7.866424997E-2,7.533260286E-2,-1.394911766E-2,3.391892324E-1,3.477339706E-1
8.873324998E-2,-2.434780598E-3,5.149058104E-2,2.062769043E-1,2.126202468E-1
9.880225000E-2,-6.320840120E-4,1.332633072E-1,-2.913375199E-4,1.332651247E-1
1.088722500E-1,2.440393925E-2,-6.267981291E-2,-3.698831677E-1,3.759492904E-1
1.189412500E-1,-6.405390859E-2,3.767700183E-1,-1.449241170E-1,4.087316352E-1
1.290102500E-1,-3.973183036E-2,-2.122837490E-1,-3.017595971E-1,3.710820163E-1
1.390792500E-1,7.022272110E-2,-5.463404417E-2,6.646793157E-2,1.110589720E-1
1.491492500E-1,6.542449594E-3,2.183964282E-1,3.586892581E-1,4.199973659E-1
1.592182500E-1,6.437433600E-2,-4.030778110E-2,3.372580433E-1,3.457047297E-1
1.692872500E-1,1.278645730E-1,-1.885042924E-1,-1.065508872E-3,2.277813701E-1
1.793572500E-1,4.617370784E-2,5.301489168E-1,4.629163156E-1,7.053236141E-1
1.894262500E-1,1.156590950E-1,-2.006378496E-1,-1.918667337E-1,3.007414445E-1
1.994952500E-1,1.103907537E-1,-2.742285669E-2,-1.773624229E-1,2.107025407E-1
2.095652500E-1,-7.790245414E-3,4.234547728E-1,4.624608175E-1,6.270922104E-1
2.196342500E-1,1.663433450E-1,-5.365387541E-1,9.555461347E-2,5.698022703E-1
2.297032500E-1,6.143786430E-2,1.414382994E-1,7.411275673E-1,7.570003135E-1
2.397722500E-1,3.222751379E-2,1.668269098E-2,4.107698232E-1,4.123697036E-1
2.498422500E-1,1.561984259E-1,-2.556589794E-1,1.335718940E-1,3.280257808E-1
2.599112500E-1,1.859970063E-1,4.615563995E-1,4.984632938E-1,7.043400113E-1
2.699802500E-1,3.268102384E-1,7.067763448E-2,-4.090624362E-2,3.368583986E-1
2.800502500E-1,3.984859926E-1,4.868444377E-1,-1.717385709E-1,6.521523821E-1
2.901192500E-1,3.736511135E-1,3.620034599E-1,-2.407444865E-1,5.732534931E-1
3.001882500E-1,3.865021241E-1,3.965417933E-1,-4.189576793E-1,6.943736910E-1
3.102582500E-1,4.356210744E-1,3.124746197E-1,-2.259282267E-1,5.817642754E-1
3.203272500E-1,3.253151053E-1,4.035350633E-1,-4.722082722E-1,7.011783777E-1
3.303962500E-1,2.811680424E-1,4.493982840E-1,-1.116598919E-1,5.417399904E-1
3.404652500E-1,2.072323394E-1,2.901680768E-1,-3.383295456E-1,4.915380317E-1
3.505352500E-1,9.412847757E-2,4.188968682E-1,-3.736055052E-1,5.691360383E-1
3.606042500E-1,1.537232995E-2,4.007874566E-1,-4.647801156E-1,6.139115977E-1
3.706732500E-1,-4.521768808E-2,3.898660272E-1,-4.453642899E-1,5.936240470E-1
3.807432500E-1,-1.293971282E-1,3.980913055E-1,-4.191979998E-1,5.924080244E-1
3.908122500E-1,-2.395154017E-1,3.211331767E-1,-3.248737867E-1,5.157878654E-1
4.008812500E-1,-2.392318118E-1,1.618696404E-1,-1.017207947E-1,3.062364451E-1
4.109512500E-1,-1.425685662E-1,-7.094836056E-2,2.173888068E-1,2.694760829E-1
4.210202500E-1,2.253224552E-2,-1.401706231E-1,4.064218336E-1,4.305046022E-1
4.310892500E-1,7.410878062E-2,-5.910716414E-2,3.277381915E-1,3.411716436E-1
4.411592500E-1,8.967582285E-2,-5.479484260E-2,1.826839739E-1,2.107549817E-1
4.512282500E-1,2.929805875E-2,-1.536238968E-2,-9.082787052E-2,9.666478845E-2
4.612972500E-1,3.582998335E-2,3.530548811E-2,-2.848297150E-1,2.892373278E-1
4.713662500E-1,5.502931595E-2,1.085570669E-1,-3.802982283E-1,3.992988916E-1
4.814362500E-1,1.364962327E-1,6.800662637E-2,-2.924724644E-1,3.298427887E-1
4.915052500E-1,1.138312554E-1,-1.588074535E-1,-1.366465062E-1,2.384316037E-1
5.015742500E-1,3.020730078E-2,-3.598259568E-1,-2.413350552E-2,3.618972593E-1
5.116442500E-1,-1.710731578E-1,-6.716708314E-1,1.003031373E-1,7.003345275E-1
5.217132500E-1,-3.386210293E-1,-8.921237254E-1,3.503137064E-1,1.016498222E0
5.317822500E-1,-5.221452481E-1,-9.490978253E-1,6.010785663E-1,1.238837271E0
5.418522500E-1,-5.876650536E-1,-9.749378407E-1,9.858253562E-1,1.505890315E0
5.519212500E-1,-6.555272537E-1,-8.602096224E-1,1.251087656E0,1.653752369E0
5.619902500E-1,-9.449463022E-1,-7.183883303E-1,1.263748633E0,1.733801002E0
5.720592500E-1,-1.447261303E0,-5.723991430E-1,7.868071854E-1,1.743924197E0
5.821292500E-1,-1.628950666E0,-3.453272009E-1,7.764370023E-1,1.837276671E0
5.921982500E-1,-1.995220254E0,-2.116838247E-1,2.439943689E-1,2.021199435E0
6.022672500E-1,-2.152768802E0,1.110128975E-1,9.094613045E-2,2.157546889E0
6.123372500E-1,-2.373397112E0,2.208791560E-1,1.873073673E-1,2.391000942E0
6.224052500E-1,-2.405961426E0,3.527040482E-2,2.391161831E-1,2.418071739E0
6.324742500E-1,-2.789473284E0,3.336894876E-1,-1.742910267E-1,2.814762377E0
6.425442500E-1,-2.644369950E0,7.316346127E-1,3.110572547E-3,2.743718519E0
6.526132500E-1,-2.574618514E0,3.082932758E-1,-3.250527115E-1,2.613305283E0
6.626822500E-1,-2.397183586E0,5.939981729E-1,-3.308119266E-1,2.491738249E0
6.727522500E-1,-2.159272075E0,3.892345279E-1,-4.985319985E-1,2.249998570E0
6.828212500E-1,-1.802772599E0,5.609701753E-1,-5.270750356E-1,1.960225670E0
6.928902500E-1,-1.441500041E0,6.719450659E-1,-3.812805605E-1,1.635483845E0
7.029592500E-1,-1.127434394E0,5.280427498E-1,-3.579058043E-1,1.295389526E0
7.130292500E-1,-9.665429932E-1,7.778381413E-1,-4.304790330E-1,1.313221127E0
7.230982500E-1,-9.281291252E-1,9.837560266E-1,-5.672411679E-1,1.466615879E0
7.331672500E-1,-8.148463386E-1,8.927704275E-1,-8.543705928E-1,1.480190090E0
7.432372500E-1,-8.921623170E-2,4.929787517E-2,-1.219255634E0,1.223508936E0
7.533062500E-1,-4.711078262E-1,1.709320060E0,-6.230424625E-1,1.879334872E0
7.633752500E-1,-7.956054908E-1,3.300311186E0,-3.778576005E-1,3.415818846E0
7.734442500E-1,-1.440490812E-1,2.389452982E0,-7.689217222E-1,2.514254622E0
7.835142500E-1,1.431643975E-1,2.847004623E0,-9.614939956E-1,3.008388618E0
7.935832500E-1,5.659514183E-1,3.980910131E0,-1.494506221E0,4.289696414E0
8.036522500E-1,1.142247146E0,4.770918667E0,-2.538072832E0,5.523423501E0
8.137222500E-1,1.757345581E0,5.013193370E0,-3.344117357E0,6.277220097E0
8.237912500E-1,1.886074373E0,5.332836676E0,-3.849757669E0,6.842299150E0
8.338602500E-1,1.700776109E0,5.649670395E0,-3.968101805E0,7.110361938E0
8.439302500E-1,1.414022221E0,5.551460561E0,-4.131242630E0,7.062955392E0
8.539992500E-1,1.309049497E0,5.157564048E0,-4.498493382E0,6.967820334E0
8.640682500E-1,1.849751469E0,4.722071612E0,-4.306914039E0,6.653499030E0
8.741382500E-1,2.810930226E0,4.211723707E0,-4.414714476E0,6.717860465E0
8.842072500E-1,4.502227998E0,3.341541073E0,-4.799534941E0,7.380480292E0
8.942762500E-1,6.736128087E0,2.383094720E0,-5.567149225E0,9.058019240E0
9.043452500E-1,9.319717984E0,1.348491890E0,-6.561861180E0,1.147752568E1
9.144152500E-1,1.202176779E1,-1.753404558E-2,-7.264660249E0,1.404629833E1
9.244842500E-1,1.526715024E1,-1.501197774E0,-8.277327833E0,1.743139774E1
9.345532500E-1,1.886763291E1,-3.268803465E0,-9.037809684E0,2.117438669E1
9.446232500E-1,2.269364270E1,-4.966257770E0,-9.554336343E0,2.511872764E1
9.546922500E-1,2.683379415E1,-6.803198574E0,-9.342898686E0,2.921687484E1
9.647612500E-1,3.064068471E1,-7.479123255E0,-8.806235386E0,3.274658190E1
9.748312500E-1,3.326824333E1,-7.777744651E0,-8.008000402E0,3.509127237E1
9.849002500E-1,3.464826107E1,-8.156461208E0,-6.853738983E0,3.624918748E1
9.949692500E-1,3.479985364E1,-8.368460782E0,-5.770322428E0,3.625406971E1
1.005039250E0,3.423425481E1,-9.206494254E0,-4.931166290E0,3.579190048E1
1.015108250E0,3.352592545E1,-1.091981206E1,-4.446129227E0,3.553868368E1
1.025177250E0,3.266397336E1,-1.320935717E1,-3.340485066E0,3.539182268E1
1.035246250E0,3.225788189E1,-1.561939469E1,-1.202477706E0,3.586059658E1
1.045316250E0,3.279541876E1,-1.790423397E1,1.554519703E0,3.739675945E1
1.055385250E0,3.356419430E1,-1.961013341E1,4.244956942E0,3.910411911E1
1.065454250E0,3.321536579E1,-2.032446319E1,6.176470027E0,3.942706064E1
1.075524250E0,3.130581251E1,-2.019784524E1,7.842908946E0,3.807253695E1
1.085593250E0,2.803522389E1,-1.999515502E1,8.712892774E0,3.552033929E1
1.095662250E0,2.449244738E1,-2.015821983E1,9.362641225E0,3.307405110E1
1.105732250E0,2.126498081E1,-2.076833702E1,9.629881200E0,3.124512511E1
1.115801250E0,1.841548059E1,-2.156641179E1,9.415594779E0,2.988132306E1
1.125870250E0,1.629018142E1,-2.268005143E1,8.936178060E0,2.931910678E1
1.135939250E0,1.445993510E1,-2.374166255E1,8.375007910E0,2.903268884E1
1.146009250E0,1.299414572E1,-2.493794440E1,7.559165790E0,2.911854875E1
1.156078250E0,1.241914691E1,-2.614316782E1,6.408800955E0,2.964410840E1
1.166147250E0,1.266248931E1,-2.735351339E1,6.234138776E0,3.078015297E1
1.176217250E0,1.282358010E1,-2.798213585E1,6.748850459E0,3.151176155E1
1.186286250E0,1.263155871E1,-2.852404176E1,6.633721706E0,3.189331431E1
1.196355250E0,1.243714230E1,-2.842882102E1,6.829328611E0,3.177294608E1
1.206425250E0,1.250664932E1,-2.817939986E1,6.402243887E0,3.148783226E1
1.216494250E0,1.338589397E1,-2.773850342E1,5.411833729E0,3.127130752E1
1.226563250E0,1.469975748E1,-2.670097816E1,4.856934133E0,3.086446036E1
1.236632250E0,1.632574887E1,-2.491989288E1,4.578415757E0,3.014121809E1
1.246702250E0,1.870899445E1,-2.318602972E1,4.042026983E0,3.006586818E1
1.256771250E0,2.241430484E1,-2.119097845E1,3.695758381E0,3.106633643E1
1.266840250E0,2.634703918E1,-1.947853714E1,2.915515280E0,3.289498612E1
1.276910250E0,3.011951770E1,-1.839902536E1,1.984300871E0,3.535034555E1
1.286979250E0,3.288256333E1,-1.783514210E1,2.302745790E0,3.747876603E1
1.297048250E0,3.397259191E1,-1.757298336E1,2.524929460E0,3.833173638E1
1.307118250E0,3.370757973E1,-1.742904011E1,2.982206867E0,3.806397152E1
1.317187250E0,3.240856464E1,-1.697420508E1,3.160705697E0,3.672095806E1
1.327256250E0,3.058595711E1,-1.601165398E1,2.949025673E0,3.464925090E1
1.337326250E0,2.896201693E1,-1.508513226E1,2.232924042E0,3.273141594E1
1.347395250E0,2.723539495E1,-1.439467198E1,1.867939964E0,3.086199150E1
1.357464250E0,2.528722432E1,-1.379164279E1,1.480032169E0,2.884169932E1
1.367533250E0,2.310285424E1,-1.364164884E1,9.082456684E-1,2.684513676E1
1.377603250E0,2.042762912E1,-1.425096614E1,8.568316859E-1,2.492212326E1
1.387672250E0,1.672207314E1,-1.565036272E1,1.593658041E0,2.295868745E1
1.397741250E0,1.113916567E1,-1.665454248E1,2.816512563E0,2.023332746E1
1.407811250E0,5.093285022E0,-1.866131274E1,3.913716853E0,1.973583860E1
1.417880250E0,-5.529635829E-1,-2.244322049E1,7.536953387E0,2.368141848E1
1.427949250E0,-5.903953525E0,-2.672930675E1,1.265805244E1,3.015856094E1
1.438018250E0,-1.065700895E1,-3.062864179E1,1.679608486E1,3.652114462E1
1.448088250E0,-1.426579467E1,-3.363952515E1,1.830535764E1,4.086828439E1
1.458157250E0,-1.630665537E1,-3.593482861E1,1.714307852E1,4.302445883E1
1.468226250E0,-1.699805938E1,-3.840072575E1,1.363582852E1,4.415297929E1
1.478296250E0,-1.783369316E1,-3.856137683E1,1.094686946E1,4.387316202E1
1.488365250E0,-1.718243028E1,-3.822077886E1,8.425948852E0,4.274412779E1
1.498434250E0,-1.720078352E1,-3.818198843E1,7.404589967E0,4.252715775E1
1.508504250E0,-1.867268558E1,-3.805244921E1,9.415276691E0,4.342010494E1
1.518573250E0,-2.031062867E1,-3.850833557E1,1.316888508E1,4.548442678E1
1.528642250E0,-1.972649417E1,-3.751297106E1,1.806599251E1,4.607317718E1
1.538711250E0,-1.511599737E1,-3.508492880E1,2.100559130E1,4.359679428E1
1.548781250E0,-7.668612803E0,-3.169017104E1,1.937070279E1,3.792490857E1
1.558850250E0,1.172518766E-1,-2.850772101E1,1.510368314E1,3.226182186E1
1.568919250E0,7.345596238E0,-2.626041151E1,1.145413296E1,2.957641220E1
1.578989250E0,1.395464445E1,-2.481567211E1,9.917867095E0,3.014819682E1
1.589058250E0,1.949303356E1,-2.437151293E1,9.952728195E0,3.275676721E1
1.599127250E0,2.381193439E1,-2.454891745E1,1.099886290E1,3.592537477E1
1.609197250E0,2.600643652E1,-2.508136959E1,1.269130205E1,3.829463394E1
1.619270500E0,2.591754247E1,-2.630592155E1,1.549658796E1,4.004828030E1
1.629339500E0,2.519152177E1,-2.844285434E1,2.071038877E1,4.327272739E1
1.639408500E0,2.539798696E1,-2.958394783E1,2.633776783E1,4.705258468E1
1.649478500E0,2.588596751E1,-2.951784857E1,2.852301499E1,4.852781761E1
1.659547500E0,2.574856730E1,-2.969660029E1,2.717592175E1,4.778501344E1
1.669616500E0,2.582038046E1,-3.208794075E1,2.362798099E1,4.748272817E1
1.679686500E0,2.336212914E1,-2.840875572E1,2.234468321E1,4.303639561E1
1.689755500E0,2.047366542E1,-2.852464520E1,2.122380238E1,4.102774849E1
1.699824500E0,1.725081347E1,-2.887895840E1,2.079929920E1,3.954991341E1
1.709894500E0,1.395392524E1,-3.002332399E1,2.341262803E1,4.054951497E1
1.719963500E0,1.184710444E1,-3.052868948E1,2.635378920E1,4.203423569E1
1.730032500E0,1.235278686E1,-2.992540652E1,2.567974089E1,4.132275875E1
1.740101500E0,1.520672979E1,-2.927361739E1,2.228401952E1,3.980913000E1
1.750171500E0,1.782477616E1,-2.728108978E1,1.808591632E1,3.727037528E1
1.760240500E0,1.990455826E1,-2.482470956E1,1.352667387E1,3.457497000E1
1.770309500E0,2.046388420E1,-2.256840470E1,9.538010917E0,3.192298700E1
1.780379500E0,1.945663347E1,-2.018547019E1,5.598024863E0,2.858936298E1
1.790448500E0,1.741815376E1,-1.833487556E1,1.635644120E0,2.534235731E1
1.800517500E0,1.622496509E1,-1.743495047E1,-2.298446918E0,2.392717803E1
1.810587500E0,1.596138781E1,-1.700045908E1,-4.385998800E0,2.372801077E1
1.820656500E0,1.898880243E1,-1.565114507E1,-4.310825826E0,2.498231733E1
1.830725500E0,2.620698667E1,-1.304054338E1,-4.841411530E0,2.966987003E1
1.840795500E0,3.650443863E1,-1.029703798E1,-6.545367354E0,3.848954228E1
1.850864500E0,4.571283031E1,-8.638627288E0,-7.254902415E0,4.708420484E1
1.860933500E0,4.918328377E1,-7.371388307E0,-2.379103410E0,4.978948585E1
1.871003500E0,5.072006770E1,-4.635819334E0,7.217360952E0,5.144031870E1
1.881072500E0,5.547971528E1,3.826524342E0,1.430626793E1,5.742221171E1
1.891141500E0,6.683124247E1,1.045347205E1,1.178461408E1,6.866270586E1
1.901210500E0,7.119077209E1,1.459195119E1,4.073535290E0,7.278492124E1
1.911280500E0,7.073182179E1,1.588070793E1,-4.166608199E-1,7.249386943E1
1.921349500E0,7.064104962E1,1.526262683E1,-1.602511311E-1,7.227123459E1
1.931418500E0,7.033036132E1,1.291987907E1,1.121804549E0,7.151602229E1
1.941488500E0,6.992175789E1,8.544773630E0,2.760403851E0,7.049599430E1
1.951557500E0,6.570684628E1,3.781182986E0,3.914619663E0,6.593186817E1
1.961626500E0,5.474012202E1,4.710049152E-2,2.951966822E0,5.481967972E1
1.971696500E0,4.480122132E1,-3.036862546E0,1.326741564E0,4.492362640E1
1.981765500E0,3.661153155E1,-6.103934147E0,1.278482154E0,3.713888490E1
1.991834500E0,3.095073683E1,-9.224408369E0,3.774884073E0,3.251595869E1
2.001904500E0,2.835647460E1,-1.295610608E1,7.299731848E0,3.201931325E1
2.011973500E0,2.758807561E1,-1.694446147E1,9.068624511E0,3.362226407E1
2.022042500E0,2.622971128E1,-2.091507407E1,8.373996341E0,3.457689824E1
2.032112500E0,2.413945799E1,-2.448329766E1,6.244441570E0,3.494478998E1
2.042181500E0,2.168452321E1,-2.773077106E1,3.764495909E0,3.540318686E1
2.052250500E0,1.925157045E1,-3.029992536E1,2.383000872E0,3.597759212E1
2.062319500E0,1.749700931E1,-3.191394165E1,1.945573592E0,3.644763728E1
2.072389500E0,1.677219314E1,-3.296325724E1,2.028987632E0,3.704051270E1
2.082458500E0,1.673049781E1,-3.347593175E1,2.016188954E0,3.747816140E1
2.092527500E0,1.765141440E1,-3.344672140E1,2.101809733E0,3.787708023E1
2.102597500E0,1.883350155E1,-3.306820775E1,2.062647714E0,3.811117500E1
2.112666500E0,2.020348663E1,-3.260262671E1,2.337224482E0,3.842622488E1
2.122735500E0,2.191570107E1,-3.161861282E1,2.581192539E0,3.855771239E1
2.132805500E0,2.385209307E1,-3.031657355E1,2.800715725E0,3.867636208E1
2.142874500E0,2.579343883E1,-2.867054960E1,3.787719880E0,3.875111254E1
2.152943500E0,2.797421872E1,-2.708514724E1,4.456186145E0,3.919208733E1
2.163013500E0,3.068610354E1,-2.520132638E1,4.352716741E0,3.994608798E1
2.173082500E0,3.320714694E1,-2.300699967E1,3.617925216E0,4.056015316E1
2.183151500E0,3.586968361E1,-2.129529277E1,1.568184354E0,4.174425588E1
2.193220500E0,3.817474490E1,-1.964218200E1,-5.431785598E-1,4.293508477E1
2.203290500E0,3.888552308E1,-1.879317213E1,-1.892104021E0,4.323016633E1
2.213359500E0,3.789824176E1,-1.860896262E1,-2.141186053E0,4.227475483E1
2.223428500E0,3.630240096E1,-1.822661085E1,-9.267750563E-1,4.063166955E1
2.233498500E0,3.401168406E1,-1.774944531E1,-2.741781346E-1,3.836551361E1
2.243567500E0,3.116842399E1,-1.710625392E1,2.506269022E-1,3.555499109E1
2.253636500E0,2.810759371E1,-1.664281180E1,5.525677264E-1,3.266994551E1
2.263706500E0,2.491144950E1,-1.639287373E1,1.412823542E0,2.985469303E1
2.273775500E0,2.148894320E1,-1.716500207E1,2.693135144E0,2.763448847E1
2.283844500E0,1.705190639E1,-1.900654989E1,4.365413092E0,2.590508217E1
2.293913500E0,1.122271537E1,-2.036261978E1,5.484322246E0,2.388856243E1
2.303983500E0,5.137174222E0,-2.318526256E1,5.577409920E0,2.439373814E1
2.314052500E0,-7.046596527E-1,-2.751107948E1,7.321014544E0,2.847724167E1
2.324121500E0,-5.417563416E0,-3.156698658E1,9.964171196E0,3.354264961E1
2.334191500E0,-8.432314716E0,-3.847652671E1,1.288665168E1,4.144409283E1
2.344260500E0,-1.139504100E1,-4.095838441E1,1.581775213E1,4.536118931E1
2.354329500E0,-1.083394336E1,-4.456256136E1,1.321826716E1,4.772754750E1
2.364399500E0,-1.443169071E1,-4.533045515E1,1.507705725E1,4.990432362E1
2.374468500E0,-2.015564004E1,-4.518248785E1,1.675831185E1,5.223550564E1
2.384537500E0,-2.564693801E1,-4.409391872E1,1.894339295E1,5.441407202E1
2.394606500E0,-2.801385816E1,-4.313825915E1,2.073801570E1,5.545945318E1
2.404676500E0,-2.666408456E1,-4.141753585E1,2.037931942E1,5.330761992E1
2.414745500E0,-2.251732342E1,-3.869352858E1,1.635409851E1,4.766209758E1
2.424814500E0,-1.665076752E1,-3.658973781E1,1.102571566E1,4.168480992E1
2.434884500E0,-1.031379376E1,-3.403541908E1,6.477723255E0,3.614892795E1
2.444953500E0,-3.670654530E0,-3.146646593E1,3.068375823E0,3.182808686E1
2.455022500E0,2.793482720E0,-2.942018837E1,6.644357792E-1,2.955998147E1
2.465092500E0,8.340615172E0,-2.903582750E1,-7.995663947E-1,3.022059639E1
2.475161500E0,1.373226197E1,-3.004745662E1,6.427797389E-1,3.304296951E1
2.485230500E0,2.036513408E1,-3.118353086E1,5.037786759E0,3.758364775E1
2.495300500E0,2.693318980E1,-3.216812947E1,9.691538334E0,4.305939133E1
2.505369500E0,3.167928587E1,-3.309860391E1,1.384384907E1,4.786174768E1
2.515438500E0,3.346415312E1,-3.301323924E1,1.827631686E1,5.043557541E1
2.525507500E0,3.320006714E1,-3.212299832E1,2.185092561E1,5.110376140E1
2.535577500E0,3.120200104E1,-3.072607511E1,2.274854338E1,4.934726727E1
2.545646500E0,2.766732176E1,-2.884559652E1,2.160888597E1,4.543669315E1
2.555715500E0,2.422404849E1,-2.692579892E1,1.915174795E1,4.097063122E1
2.565785500E0,2.196894347E1,-2.566019248E1,1.590414591E1,3.733660151E1
2.575854500E0,2.017622691E1,-2.476578366E1,1.314979743E1,3.454477306E1
2.585923500E0,1.891139465E1,-2.455927872E1,1.152503279E1,3.307000755E1
2.595993500E0,1.790006257E1,-2.470101756E1,1.059346492E1,3.229201151E1
2.606062500E0,1.627536458E1,-2.510076831E1,1.121284878E1,3.194783310E1
2.616131500E0,1.348448270E1,-2.569953021E1,1.364948060E1,3.207187939E1
2.626198292E0,1.047978218E1,-2.616512060E1,1.692183508E1,3.287533837E1
2.636267292E0,7.671962673E0,-2.603413362E1,1.921037565E1,3.325167149E1
2.646336292E0,5.260106084E0,-2.530696920E1,1.967702439E1,3.248533045E1
2.656405292E0,3.650115016E0,-2.436847004E1,1.789501174E1,3.045286714E1
2.666475292E0,3.243776797E0,-2.387944166E1,1.513642754E1,2.845806144E1
2.676544292E0,4.810863921E0,-2.373957860E1,1.206488516E1,2.706055169E1
2.686613292E0,7.529804581E0,-2.351023911E1,9.830407952E0,2.657190661E1
2.696683292E0,8.751532930E0,-2.267666707E1,9.214856358E0,2.599488672E1
2.706752292E0,8.630721853E0,-2.224225169E1,9.077454976E0,2.552660002E1
2.716821292E0,8.652267673E0,-2.204079640E1,8.601511502E0,2.519215040E1
2.726891292E0,1.040483491E1,-2.261296282E1,7.180535188E0,2.590688639E1
2.736960292E0,1.286377503E1,-2.352475658E1,6.673010902E0,2.763005528E1
2.747029292E0,1.539313902E1,-2.286135722E1,7.552732683E0,2.857681147E1
2.757099292E0,1.969751069E1,-2.128867606E1,7.998813257E0,3.008622059E1
2.767168292E0,2.650429653E1,-1.931991037E1,7.068401379E0,3.355143766E1
2.777237292E0,3.523177577E1,-1.738578592E1,5.177391372E0,3.962762871E1
2.787307292E0,4.356139174E1,-1.673092817E1,2.618876089E0,4.673732256E1
2.797376292E0,4.976722883E1,-1.663601616E1,3.764811293E-1,5.247547844E1
2.807445292E0,5.294095247E1,-1.462488973E1,1.922651630E0,5.495751484E1
2.817515292E0,5.491972977E1,-1.167567344E1,9.149566348E0,5.688771952E1
2.827584292E0,5.979199004E1,-1.003503360E1,1.983900863E1,6.379161572E1
2.837653292E0,6.768408460E1,-7.558402728E0,2.856838471E1,7.385402741E1
2.847722292E0,7.195031605E1,-4.013883165E0,3.195270401E1,7.882851344E1
2.857792292E0,7.170547676E1,-1.393866869E0,3.057004333E1,7.796246411E1
2.867861292E0,7.153375105E1,-1.184580987E0,2.876626150E1,7.711017165E1
2.877930292E0,7.108635485E1,-1.075157948E0,2.707236055E1,7.607455893E1
2.888000292E0,6.517136763E1,-1.347977335E0,2.576095638E1,7.009101993E1
2.898069292E0,5.385787541E1,-1.069198465E0,2.365025888E1,5.883152789E1
2.908138292E0,4.490429136E1,-1.969086708E0,1.993155602E1,4.916848188E1
2.918208292E0,3.861868422E1,-4.321837010E0,1.610391369E1,4.206443964E1
2.928277292E0,3.387467444E1,-7.665449460E0,1.283262925E1,3.702605917E1
2.938346292E0,2.999104736E1,-1.114501874E1,1.011636954E1,3.355615140E1
2.948416292E0,2.691678953E1,-1.467053076E1,7.778164482E0,3.162653749E1
2.958485292E0,2.456672807E1,-1.845363017E1,5.590959088E0,3.123010435E1
2.968554292E0,2.280488481E1,-2.238229016E1,4.258127210E0,3.223602537E1
2.978624292E0,2.105468219E1,-2.617264246E1,4.278250988E0,3.386163444E1
2.988693292E0,1.907588150E1,-2.964326900E1,4.712149472E0,3.556426584E1
2.998762292E0,1.727419181E1,-3.270111487E1,5.567438078E0,3.739995967E1
3.008832292E0,1.615886232E1,-3.544637326E1,5.987894983E0,3.941331114E1
3.018901292E0,1.526940375E1,-3.709243697E1,5.983390288E0,4.055618980E1
3.028970292E0,1.535964383E1,-3.777698220E1,5.710211881E0,4.117797424E1
3.039039292E0,1.686929668E1,-3.761713102E1,5.765086831E0,4.162761035E1
3.049109292E0,1.896077087E1,-3.662025794E1,6.000288157E0,4.167202397E1
3.059178292E0,2.106579424E1,-3.573507369E1,6.115096482E0,4.193038973E1
3.069247292E0,2.349338510E1,-3.498345622E1,7.407359208E0,4.278609964E1
3.079317292E0,2.638801646E1,-3.379952602E1,8.432871371E0,4.370181566E1
3.089386292E0,2.890730336E1,-3.200689834E1,8.114560645E0,4.388530305E1
3.099455292E0,3.179951865E1,-2.971559906E1,7.203846867E0,4.411486851E1
3.109525292E0,3.497201906E1,-2.790337853E1,6.085073369E0,4.515161978E1
3.119594292E0,3.764949653E1,-2.596308059E1,6.454247854E0,4.618683209E1
3.129663292E0,4.070072803E1,-2.479408185E1,6.893335742E0,4.815406353E1
3.139733292E0,4.307447305E1,-2.418162343E1,6.134082976E0,4.977738557E1
3.149802292E0,4.406043055E1,-2.360928393E1,5.317319920E0,5.026921244E1
3.159871292E0,4.346511383E1,-2.319797207E1,4.601882972E0,4.948271774E1
3.169941292E0,4.077772416E1,-2.264134521E1,5.356461182E0,4.694832241E1
3.180010292E0,3.721679322E1,-2.208308580E1,7.122241371E0,4.385748166E1
3.190079292E0,3.395965787E1,-2.143825720E1,8.635477978E0,4.107832414E1
3.200148292E0,3.070129227E1,-2.088510124E1,9.760675228E0,3.839306685E1
3.210218292E0,2.656542800E1,-2.073865655E1,1.049985216E1,3.529958549E1
3.220287292E0,2.092082305E1,-2.090962680E1,1.062029077E1,3.142743875E1
3.230356292E0,1.385378583E1,-2.124454362E1,1.004161289E1,2.727804987E1
3.240426292E0,5.502901774E0,-2.147023445E1,8.912968122E0,2.388920040E1
3.250495292E0,-1.314127219E0,-2.314291469E1,8.495616088E0,2.468799148E1
3.260564292E0,-5.188137385E0,-2.702825383E1,9.109666117E0,2.899015853E1
3.270634292E0,-9.102374055E0,-3.059081498E1,1.211504258E1,3.413832789E1
3.280703292E0,-1.209118009E1,-3.597920430E1,1.601520792E1,4.119692540E1
3.290772292E0,-1.595923136E1,-4.007891172E1,1.869550141E1,4.701635889E1
3.300842292E0,-1.973928086E1,-4.119521068E1,2.083076190E1,5.020562950E1
3.310911292E0,-2.055378865E1,-4.177470250E1,2.050652911E1,5.087338924E1
3.320980292E0,-2.000203836E1,-4.184990705E1,1.967313014E1,5.038380998E1
3.331049292E0,-2.006729796E1,-4.145431718E1,1.943275929E1,4.998788847E1
3.341119292E0,-2.206751349E1,-4.096155594E1,2.025207466E1,5.074416957E1
3.351188292E0,-2.393567785E1,-3.961501702E1,2.245433722E1,5.144378979E1
3.361257292E0,-2.309373726E1,-3.745384870E1,2.280346277E1,4.955915049E1
3.371327292E0,-1.902414768E1,-3.516038127E1,2.128621322E1,4.529098673E1
3.381396292E0,-1.206527692E1,-3.280012460E1,1.921601470E1,3.988325842E1
3.391465292E0,-3.144108667E0,-3.033296212E1,1.696983604E1,3.489913102E1
3.401535292E0,5.927418401E0,-2.817012617E1,1.526167490E1,3.258234212E1
3.411604292E0,1.406903821E1,-2.701159628E1,1.374511298E1,3.341395368E1
3.421673292E0,2.050368035E1,-2.586495729E1,1.357792238E1,3.568973101E1
3.431743292E0,2.517299779E1,-2.425642335E1,1.417522715E1,3.772255236E1
3.441812292E0,2.858771326E1,-2.347787127E1,1.450099658E1,3.973344549E1
3.451881292E0,3.072836020E1,-2.318422877E1,1.438482644E1,4.109335489E1
3.461951292E0,3.141605124E1,-2.312918542E1,1.457208469E1,4.164460524E1
3.472020292E0,3.025098416E1,-2.312427376E1,1.555501685E1,4.113164997E1
3.482089292E0,2.882217024E1,-2.364036773E1,1.752344458E1,4.119047940E1
3.492158292E0,2.835588520E1,-2.432435163E1,1.968720556E1,4.222933068E1
3.502228292E0,2.822509468E1,-2.471954622E1,2.109933153E1,4.304525207E1
3.512297292E0,2.770890716E1,-2.462664332E1,2.169298296E1,4.295160773E1
3.522366292E0,2.640974238E1,-2.403684169E1,2.142215396E1,4.164316188E1
3.532436292E0,2.414184131E1,-2.327072079E1,2.077138693E1,3.944369991E1
3.542505292E0,2.116724811E1,-2.255780487E1,1.986228523E1,3.676162846E1
3.552574292E0,1.805627912E1,-2.214141996E1,1.921674093E1,3.443188675E1
3.562644292E0,1.547127887E1,-2.199600906E1,1.883352143E1,3.283118052E1
3.572713292E0,1.391836832E1,-2.171194197E1,1.823853098E1,3.158755156E1
3.582782292E0,1.348136146E1,-2.127080931E1,1.679889854E1,3.027205688E1
3.592852292E0,1.379119606E1,-2.057309147E1,1.487914304E1,2.889356467E1
3.602921292E0,1.322738765E1,-1.966328343E1,1.344726751E1,2.724770638E1
3.612990292E0,1.218256856E1,-1.926909456E1,1.253939490E1,2.601825140E1
3.623060542E0,1.079322568E1,-1.885767978E1,1.210679917E1,2.487328675E1
3.633129542E0,9.388913934E0,-1.843097337E1,1.168232757E1,2.375561537E1
3.643198542E0,8.180112610E0,-1.800505400E1,1.129678439E1,2.277528374E1
3.653267542E0,8.527696252E0,-1.791698792E1,9.839024409E0,2.214828347E1
3.663337542E0,9.555742598E0,-1.774504235E1,8.374646552E0,2.182506471E1
3.673406542E0,1.086100193E1,-1.709491383E1,6.997833087E0,2.142818494E1
3.683475542E0,1.201086741E1,-1.663796913E1,5.638325627E0,2.128082867E1
3.693545542E0,1.333797019E1,-1.585973631E1,5.389736516E0,2.141219148E1
3.703614542E0,1.572486092E1,-1.442927815E1,5.239874718E0,2.197570490E1
3.713683542E0,2.023716426E1,-1.309246548E1,5.346573540E0,2.468889058E1
3.723753542E0,2.764797917E1,-1.291230108E1,4.720528532E0,3.087752679E1
3.733822542E0,3.607118100E1,-1.360514935E1,3.647749232E0,3.872384617E1
3.743891542E0,4.337444924E1,-1.365911681E1,3.994312534E0,4.564941239E1
3.753961542E0,4.971542250E1,-1.260162097E1,6.944484261E0,5.175567550E1
3.764030542E0,5.551621126E1,-9.079070562E0,1.157049606E1,5.743131214E1
3.774099542E0,6.301164006E1,-4.748458343E0,1.484325517E1,6.491022156E1
3.784169542E0,7.086467521E1,-5.751099122E-1,1.528550465E1,7.249675577E1
3.794238542E0,7.187970975E1,5.325797213E0,1.458723132E1,7.353804530E1
3.804307542E0,7.174884439E1,9.959962370E0,1.163768875E1,7.336575032E1
3.814377542E0,7.164410906E1,1.090253587E1,9.756140127E0,7.312267720E1
3.824446542E0,7.132476688E1,1.023544341E1,9.186489176E0,7.263868292E1
3.834515542E0,6.987512986E1,7.315753219E0,8.627767839E0,7.078483168E1
3.844585542E0,6.146398031E1,3.574224004E0,9.643780031E0,6.231852410E1
3.854654542E0,5.238846076E1,-9.343458849E-1,1.142841106E1,5.362865281E1
3.864723542E0,4.559306530E1,-5.689783464E0,1.232347009E1,4.757067536E1
3.874793542E0,3.972431786E1,-1.030896162E1,1.198474907E1,4.275430188E1
3.884862542E0,3.484445854E1,-1.457277233E1,1.096986305E1,3.932988533E1
3.894931542E0,3.053233347E1,-1.851285895E1,9.638718097E0,3.698451325E1
3.905001542E0,2.694529354E1,-2.250013027E1,7.991853901E0,3.600242262E1
3.915070542E0,2.387451831E1,-2.619764282E1,6.692800219E0,3.607080105E1
3.925139542E0,2.093145329E1,-2.925551675E1,5.897768340E0,3.645263596E1
3.935209542E0,1.899320421E1,-3.190197357E1,5.212809126E0,3.749201385E1
3.945278542E0,1.818851039E1,-3.416498402E1,4.858395352E0,3.900861506E1
3.955347542E0,1.814028256E1,-3.561692953E1,5.220076046E0,4.030985877E1
3.965416542E0,1.817911976E1,-3.645977526E1,5.668148181E0,4.113299784E1
3.975486542E0,1.846688463E1,-3.723582240E1,6.235071992E0,4.202866189E1
3.985555542E0,1.896370384E1,-3.727556241E1,7.299728925E0,4.245439505E1
3.995624542E0,1.951640605E1,-3.661568775E1,7.257281063E0,4.212204676E1
4.005694542E0,2.112522066E1,-3.564954763E1,6.076104324E0,4.188178886E1
4.015763542E0,2.335173513E1,-3.407687583E1,4.934511482E0,4.160392294E1
4.025832542E0,2.559585674E1,-3.252469736E1,4.575832457E0,4.164062995E1
4.035902542E0,2.744856339E1,-3.075624207E1,4.669769438E0,4.148706792E1
4.045971542E0,2.961608179E1,-2.918289199E1,6.080045933E0,4.202047648E1
4.056040542E0,3.252477220E1,-2.723020263E1,7.043364186E0,4.299946187E1
4.066110542E0,3.570421208E1,-2.556190780E1,7.525215687E0,4.455143951E1
4.076179542E0,3.900514541E1,-2.422771586E1,7.076216183E0,4.645919091E1
4.086248542E0,4.064094609E1,-2.270700242E1,6.816022103E0,4.705053257E1
4.096318542E0,4.066313745E1,-2.139123389E1,6.449586453E0,4.639690506E1
4.106387542E0,3.903213382E1,-1.980031176E1,5.548626416E0,4.411742367E1
4.116456542E0,3.666727189E1,-1.793106450E1,4.197224951E0,4.103204357E1
4.126526542E0,3.429237380E1,-1.609746655E1,2.757824060E0,3.798290304E1
4.136595542E0,3.220775254E1,-1.491991099E1,1.655075440E0,3.553424183E1
4.146664542E0,3.017327233E1,-1.460886485E1,1.731082227E0,3.356846646E1
4.156733542E0,2.808304008E1,-1.478432576E1,2.245541310E0,3.181628332E1
4.166803542E0,2.526629597E1,-1.610008494E1,1.708469290E0,3.000862066E1
4.176872542E0,2.049450022E1,-1.812943246E1,7.048982191E-1,2.737147680E1
4.186941542E0,1.383204705E1,-2.079547044E1,1.265580127E0,2.500757504E1
4.197011542E0,6.838441497E0,-2.490848613E1,4.449733450E0,2.621062936E1
4.207080542E0,3.349290973E-1,-3.016259063E1,7.760909933E0,3.114684212E1
4.217149542E0,-5.167874444E0,-3.550274978E1,1.146396096E1,3.766396911E1
4.227219542E0,-7.952165340E0,-4.116941277E1,1.496984622E1,4.452250865E1
4.237288542E0,-9.730563821E0,-4.460257971E1,1.922422653E1,4.953427979E1
4.247357542E0,-1.179454265E1,-4.607211598E1,2.222263545E1,5.249377709E1
4.257427542E0,-1.323615964E1,-4.621522307E1,2.218996588E1,5.294749618E1
4.267496542E0,-1.342160174E1,-4.579238518E1,1.924239383E1,5.145242127E1
4.277565542E0,-1.330026617E1,-4.435420402E1,1.658645633E1,4.918641101E1
4.287635542E0,-1.439858962E1,-4.175615045E1,1.562166692E1,4.685010097E1
4.297704542E0,-1.552941774E1,-3.871252501E1,1.617893815E1,4.473902600E1
4.307773542E0,-1.429403322E1,-3.565457858E1,1.643724124E1,4.178218829E1
4.317842542E0,-1.090299196E1,-3.235720036E1,1.380367168E1,3.682940402E1
4.327912542E0,-5.769963993E0,-2.929257874E1,1.003155685E1,3.149571060E1
4.337981542E0,-3.782060945E-1,-2.661549186E1,6.636515506E0,2.743302362E1
4.348050542E0,4.404112889E0,-2.468743799E1,4.642054513E0,2.550322479E1
4.358120542E0,8.725948437E0,-2.376884743E1,4.243995659E0,2.567317244E1
4.368189542E0,1.322063177E1,-2.460862454E1,5.205800654E0,2.841601426E1
4.378258542E0,1.778354276E1,-2.647583930E1,6.147218746E0,3.248095993E1
4.388328542E0,2.236198863E1,-2.881539448E1,8.689509759E0,3.749524069E1
4.398397542E0,2.585845519E1,-3.078348073E1,1.318871416E1,4.231104551E1
4.408466542E0,2.772257093E1,-3.238454427E1,1.799852851E1,4.627360668E1
4.418536542E0,2.849562196E1,-3.316086039E1,2.158113742E1,4.875847234E1
4.428605542E0,2.797368545E1,-3.306316745E1,2.331523915E1,4.918638527E1
4.438674542E0,2.688568936E1,-3.283551897E1,2.289187033E1,4.821876528E1
4.448744542E0,2.479421283E1,-3.201338641E1,2.084112316E1,4.554077639E1
4.458813542E0,2.192782585E1,-3.088421423E1,1.805667790E1,4.196078946E1
4.468882542E0,1.920500089E1,-3.002785675E1,1.591392362E1,3.903533278E1
4.478952542E0,1.648001479E1,-2.905159159E1,1.458366803E1,3.644542817E1
4.489021542E0,1.410786723E1,-2.816443566E1,1.345554483E1,3.425374491E1
4.499090542E0,1.223260436E1,-2.757980063E1,1.174549972E1,3.237651581E1
4.509160542E0,1.027080386E1,-2.698644858E1,9.797503331E0,3.049178398E1
4.519229542E0,8.798710020E0,-2.677713931E1,8.269713589E0,2.937380892E1
4.529298542E0,7.738323308E0,-2.680564799E1,6.990821691E0,2.876275369E1
4.539368542E0,6.777143381E0,-2.733201201E1,6.434967245E0,2.888559081E1
4.549437542E0,6.217454916E0,-2.768133169E1,6.993122571E0,2.922014088E1
4.559506542E0,6.555811651E0,-2.768422723E1,6.861243884E0,2.926553897E1
4.569575542E0,7.136463554E0,-2.704960786E1,6.095137011E0,2.863147032E1
4.579645542E0,8.216533163E0,-2.649292721E1,5.049854828E0,2.819375184E1
4.589714542E0,1.057302656E1,-2.696330764E1,4.005481593E0,2.923786470E1
4.599783542E0,1.220045169E1,-2.712286880E1,5.096794521E0,3.017413375E1
4.609853542E0,1.329171988E1,-2.600443444E1,7.797941519E0,3.022760857E1
4.619922000E0,1.473677971E1,-2.392241402E1,1.105340924E1,3.019325131E1
4.629991000E0,1.704037685E1,-2.113564040E1,1.346016296E1,3.030289962E1
4.640061000E0,2.060186445E1,-1.833667650E1,1.406879496E1,3.096129060E1
4.650130000E0,2.566661974E1,-1.605512569E1,1.308795260E1,3.298237307E1
4.660199000E0,3.104865664E1,-1.448955709E1,1.260309213E1,3.650759202E1
4.670269000E0,3.641951367E1,-1.305537893E1,1.359328418E1,4.100733190E1
4.680338000E0,4.093808756E1,-1.066090553E1,1.662149636E1,4.545168931E1
4.690407000E0,4.617206594E1,-6.012970183E0,2.105709124E1,5.110202125E1
4.700477000E0,5.526520666E1,-7.384770244E-1,2.289211123E1,5.982338316E1
4.710546000E0,6.681099707E1,4.818587508E0,2.119532644E1,7.025788196E1
4.720615000E0,7.213046642E1,9.779338955E0,1.898879775E1,7.522641887E1
4.730685000E0,7.185141858E1,1.288924667E1,1.782832659E1,7.514391699E1
4.740754000E0,7.172129698E1,9.543531858E0,2.319582263E1,7.598071880E1
4.750823000E0,7.134965263E1,5.377371410E0,3.212559448E1,7.843304709E1
4.760893000E0,6.831783857E1,2.214235318E-1,3.167665228E1,7.530462400E1
4.770962000E0,6.134861240E1,-3.823794862E0,3.027836784E1,6.852045833E1
4.781031000E0,5.349391196E1,-7.860607883E0,2.739092154E1,6.061064557E1
4.791101000E0,4.574481691E1,-1.169397639E1,2.273124264E1,5.240273609E1
4.801170000E0,3.844801101E1,-1.463161169E1,1.750206482E1,4.470632935E1
4.811239000E0,3.194837707E1,-1.700851655E1,1.213881502E1,3.817511313E1
4.821309000E0,2.622916165E1,-1.895479970E1,7.502394004E0,3.321956153E1
4.831378000E0,2.172790253E1,-2.039715811E1,4.977602538E0,3.021460465E1
4.841447000E0,1.838430090E1,-2.222120639E1,4.145930836E0,2.913680277E1
4.851517000E0,1.597158652E1,-2.411860916E1,4.464637418E0,2.926998242E1
4.861586000E0,1.405793200E1,-2.584693384E1,4.831457815E0,2.981664679E1
4.871655000E0,1.260612800E1,-2.755912722E1,4.950256864E0,3.070708386E1
4.881725000E0,1.184694540E1,-2.905410589E1,5.021958931E0,3.177595406E1
4.891794000E0,1.172487893E1,-3.018897093E1,4.813717947E0,3.274169562E1
4.901863000E0,1.153898074E1,-3.092853144E1,4.524662011E0,3.331958433E1
4.911932000E0,1.126446449E1,-3.127658579E1,4.460737910E0,3.354118605E1
4.922002000E0,1.069879432E1,-3.090833984E1,4.636423352E0,3.303461961E1
4.932071000E0,1.020809131E1,-3.028098272E1,5.165860662E0,3.237018935E1
4.942140000E0,1.036123807E1,-2.949710031E1,5.876127795E0,3.181136682E1
4.952210000E0,1.142524304E1,-2.896545977E1,7.416562725E0,3.200842765E1
4.962279000E0,1.224653476E1,-2.779363097E1,8.821426452E0,3.162722089E1
4.972348000E0,1.367534868E1,-2.652783274E1,9.331621746E0,3.127011730E1
4.982418000E0,1.623816226E1,-2.428063784E1,8.181587278E0,3.033423244E1
4.992487000E0,1.886053323E1,-2.190261967E1,6.097110447E0,2.954012894E1
5.002556000E0,2.209059830E1,-1.934293319E1,4.797149861E0,2.975157550E1
5.012626000E0,2.594713406E1,-1.676174533E1,3.227701924E0,3.105845992E1
5.022695000E0,2.993202790E1,-1.411247015E1,1.433767099E0,3.312316103E1
5.032764000E0,3.370367846E1,-1.217452045E1,-5.345574251E-1,3.583912167E1
5.042834000E0,3.708501101E1,-1.061586326E1,-2.645630025E0,3.866515166E1
5.052903000E0,3.978548909E1,-9.401593037E0,-4.343742434E0,4.111135113E1
5.062972000E0,4.182737889E1,-8.489401667E0,-5.518860580E0,4.303553634E1
5.073042000E0,4.297848983E1,-7.975073562E0,-5.576910567E0,4.406647613E1
5.083111000E0,4.245770874E1,-7.539575279E0,-4.503863465E0,4.335651062E1
5.093180000E0,4.014355854E1,-7.400312144E0,-3.253051651E0,4.094938653E1
5.103250000E0,3.663679854E1,-7.274975322E0,-1.759960456E0,3.739355204E1
5.113319000E0,3.269029752E1,-7.509152216E0,-5.155817485E-1,3.354562182E1
5.123388000E0,2.903738987E1,-8.177682508E0,-1.909999571E-1,3.016754851E1
5.133458000E0,2.559491416E1,-1.036607372E1,-1.006641590E0,2.763274222E1
5.143527000E0,2.192574892E1,-1.603817812E1,-2.713918487E0,2.730067722E1
5.153596000E0,1.581286386E1,-2.580437546E1,-6.019259448E0,3.085682972E1
5.163666000E0,5.137747250E0,-3.912980571E1,-6.710906122E0,4.003216710E1
5.173735000E0,-7.843193121E0,-5.290918104E1,1.856420803E-1,5.348767690E1
5.183804000E0,-1.954908848E1,-6.259567849E1,1.270042020E1,6.679585690E1
5.193873000E0,-2.940764960E1,-6.710768947E1,2.223520696E1,7.656798462E1
5.203943000E0,-3.749282857E1,-6.505034898E1,2.809297333E1,8.016529952E1
5.214012000E0,-4.226056402E1,-6.017068847E1,2.938511443E1,7.918302831E1
5.224081000E0,-4.150047276E1,-5.773299362E1,2.617300265E1,7.576551893E1
5.234151000E0,-3.708170382E1,-5.338078939E1,1.411130305E1,6.651082850E1
5.244220000E0,-3.177576259E1,-4.836527701E1,4.372632065E0,5.803463638E1
5.254289000E0,-2.659716201E1,-4.378857244E1,9.309398818E-1,5.124172863E1
5.264359000E0,-2.118448570E1,-4.060372038E1,1.731711388E0,4.583059423E1
5.274428000E0,-1.522764762E1,-3.833040012E1,4.037179642E0,4.144152078E1
5.284497000E0,-7.522569821E0,-3.716949392E1,5.105442553E0,3.826520454E1
5.294567000E0,2.306657578E0,-3.653083062E1,3.522332304E0,3.677266757E1
5.304636000E0,1.303816941E1,-3.638977707E1,3.062210226E-1,3.865622211E1
5.314705000E0,2.298593098E1,-3.643708104E1,-1.220240816E-1,4.308165257E1
5.324775000E0,3.255265874E1,-3.882433547E1,1.737636371E0,5.069540409E1
5.334844000E0,3.774105691E1,-4.112533879E1,6.993975679E0,5.625474703E1
5.344913000E0,3.820239053E1,-4.125808462E1,1.528153088E1,5.826815061E1
5.354983000E0,3.672201586E1,-4.174283751E1,2.326615996E1,6.026844225E1
5.365052000E0,3.378735212E1,-4.052229907E1,2.943120453E1,6.041388653E1
5.375121000E0,3.013846970E1,-3.819152407E1,3.197214015E1,5.821630023E1
5.385190000E0,2.592162851E1,-3.488586853E1,3.029972421E1,5.298139234E1
5.395260000E0,2.130083126E1,-3.143295203E1,2.477986844E1,4.534090609E1
5.405329000E0,1.718775943E1,-2.880684586E1,1.793619485E1,3.803893437E1
5.415398000E0,1.463993345E1,-2.668937728E1,1.214117144E1,3.277283257E1
5.425468000E0,1.286891006E1,-2.544106690E1,7.851257601E0,2.957192887E1
5.435537000E0,1.126064743E1,-2.466556239E1,5.938195989E0,2.775705892E1
5.445606000E0,9.595346959E0,-2.434310482E1,6.110534484E0,2.686998450E1
5.455676000E0,7.925568110E0,-2.476343074E1,6.911269737E0,2.690367598E1
5.465745000E0,6.320293990E0,-2.538361918E1,7.926591958E0,2.733322335E1
5.475814000E0,5.066687792E0,-2.567482455E1,8.468952785E0,2.750620116E1
5.485884000E0,4.261496961E0,-2.606143310E1,8.710080264E0,2.780690831E1
5.495953000E0,3.418881025E0,-2.600595471E1,8.976158397E0,2.772309232E1
5.506022000E0,3.122126060E0,-2.569260243E1,8.848852233E0,2.735250768E1
5.516092000E0,3.412891138E0,-2.518532840E1,8.091326734E0,2.667242323E1
5.526161000E0,4.630676708E0,-2.471852413E1,6.905413751E0,2.607936619E1
5.536230000E0,6.106435586E0,-2.442454016E1,6.355135210E0,2.596602513E1
5.546300000E0,6.884081939E0,-2.395978942E1,7.241343892E0,2.595956769E1
5.556369000E0,7.570050382E0,-2.320095415E1,8.753753117E0,2.592716972E1
5.566438000E0,8.775918158E0,-2.223022513E1,9.876072367E0,2.585993918E1
5.576508000E0,1.107958722E1,-2.168168848E1,1.013295575E1,2.637289633E1
5.586577000E0,1.492345324E1,-2.084126583E1,1.045669737E1,2.768411707E1
5.596646000E0,2.060961786E1,-1.903142863E1,1.081449318E1,3.006501100E1
5.606716000E0,2.825842848E1,-1.715290301E1,9.895000974E0,3.450611404E1
5.616785000E0,3.658191190E1,-1.580884214E1,9.620978229E0,4.099657291E1
5.626853750E0,4.478666409E1,-1.571867106E1,1.203585607E1,4.896716994E1
5.636923750E0,5.138689821E1,-1.494464823E1,1.719288861E1,5.620988558E1
5.646992750E0,5.585987317E1,-1.199205458E1,2.493542542E1,6.233706959E1
5.657061750E0,6.145838101E1,-9.534361669E0,3.284923654E1,7.033568789E1
5.667131750E0,6.777092277E1,-6.070758800E0,3.872547777E1,7.829057870E1
5.677200750E0,7.214733915E1,-1.401170041E0,4.124406534E1,8.311603184E1
5.687269750E0,7.225240192E1,5.042577968E0,3.911063620E1,8.231329807E1
5.697339750E0,7.199633597E1,2.407395163E0,4.095761258E1,8.286612078E1
5.707408750E0,7.151879621E1,4.256088871E-1,4.247545153E1,8.318222970E1
5.717477750E0,6.882867004E1,-2.050858850E0,3.211143253E1,7.597852289E1
5.727547750E0,6.183562933E1,-3.540986091E0,2.317261153E1,6.612982355E1
5.737616750E0,5.099414307E1,-6.010828933E0,1.766396252E1,5.430053650E1
5.747685750E0,4.058532738E1,-9.598279338E0,1.378253516E1,4.392327447E1
5.757755750E0,3.198255288E1,-1.262477360E1,1.113743256E1,3.614292463E1
5.767824750E0,2.592913399E1,-1.579480531E1,8.444403834E0,3.151354980E1
5.777893750E0,2.217499233E1,-1.926100903E1,6.283167679E0,3.003656022E1
5.787963750E0,2.000874395E1,-2.297515105E1,5.342482243E0,3.093136784E1
5.798032750E0,1.825196438E1,-2.658296497E1,5.625367028E0,3.273275095E1
5.808101750E0,1.642378562E1,-2.995362518E1,6.154661082E0,3.471080882E1
5.818171750E0,1.444827575E1,-3.285630699E1,5.982756450E0,3.638795070E1
5.828240750E0,1.261760375E1,-3.489771031E1,5.865173036E0,3.756932743E1
5.838309750E0,1.111893314E1,-3.594233176E1,5.736299234E0,3.805768011E1
5.848379750E0,1.003646968E1,-3.603018734E1,6.172875159E0,3.790790829E1
5.858448750E0,9.827794247E0,-3.572833068E1,6.915628252E0,3.769515973E1
5.868517750E0,1.058466018E1,-3.510446785E1,8.089843880E0,3.754736034E1
5.878587750E0,1.221156374E1,-3.415898010E1,8.824833040E0,3.733411159E1
5.888656750E0,1.418290338E1,-3.309765432E1,9.359836900E0,3.720505364E1
5.898725750E0,1.670793341E1,-3.142833039E1,9.778719735E0,3.691230621E1
5.908795750E0,1.994273356E1,-2.962168108E1,1.020098577E1,3.713780719E1
5.918864750E0,2.315525699E1,-2.745372531E1,1.030429204E1,3.736377114E1
5.928933750E0,2.601117043E1,-2.543420227E1,1.115236869E1,3.805068935E1
5.939003750E0,2.884645256E1,-2.377732355E1,1.233274962E1,3.936464979E1
5.949072750E0,3.193456361E1,-2.224056067E1,1.289558622E1,4.099701252E1
5.959141750E0,3.500016990E1,-2.088288164E1,1.225931093E1,4.256051389E1
5.969211750E0,3.778111736E1,-1.975643659E1,1.155571664E1,4.417311629E1
5.979280750E0,3.994638107E1,-1.824253516E1,1.041350984E1,4.513252305E1
5.989349750E0,4.084568284E1,-1.715980273E1,9.174214700E0,4.524372721E1
5.999418750E0,4.054948628E1,-1.640229828E1,8.324277467E0,4.452628237E1
6.009488750E0,3.904139113E1,-1.567506252E1,7.547974219E0,4.274236448E1
6.019557750E0,3.644087004E1,-1.501604507E1,7.214989321E0,4.006837518E1
6.029626750E0,3.323417745E1,-1.446113261E1,7.456795077E0,3.700322554E1
6.039696750E0,2.973555444E1,-1.403767725E1,7.895452026E0,3.381712204E1
6.049765750E0,2.658774332E1,-1.367278176E1,7.363516785E0,3.079081738E1
6.059834750E0,2.264179661E1,-1.482026508E1,6.046946599E0,2.772826670E1
6.069904750E0,1.626076057E1,-1.678177088E1,4.954452242E0,2.388695806E1
6.079973750E0,7.467258670E0,-1.999265943E1,4.056953756E0,2.172384075E1
6.090042750E0,-2.209538249E0,-2.560328270E1,1.880213124E0,2.576713693E1
6.100112750E0,-1.235947490E1,-3.291999954E1,4.361577757E-1,3.516636494E1
6.110181750E0,-2.149135225E1,-3.845844478E1,1.542811239E0,4.408299517E1
6.120250750E0,-2.718975159E1,-4.168422502E1,6.171366577E0,5.014920710E1
6.130320750E0,-2.889906580E1,-4.510540751E1,1.199482265E1,5.489562425E1
6.140389750E0,-3.092443372E1,-4.668901594E1,1.710345779E1,5.855521393E1
6.150458750E0,-3.344332066E1,-4.642517086E1,1.923008895E1,6.036181332E1
6.160528750E0,-3.350279152E1,-4.533652689E1,1.841611092E1,5.930422289E1
6.170597750E0,-3.111092481E1,-4.364424913E1,1.566376453E1,5.583962432E1
6.180666750E0,-2.766802342E1,-4.166411995E1,1.313584949E1,5.171043370E1
6.190736750E0,-2.373027919E1,-3.910971234E1,1.128200497E1,4.711665720E1
6.200805750E0,-1.917114551E1,-3.652592364E1,9.881403859E0,4.241836937E1
6.210874750E0,-1.380237360E1,-3.432227178E1,8.989993494E0,3.807024875E1
6.220944750E0,-7.581689265E0,-3.267535438E1,8.400982411E0,3.457943466E1
6.231013750E0,-4.186033380E-1,-3.191286108E1,7.717194979E0,3.283536249E1
6.241082750E0,6.444831498E0,-3.184833823E1,7.428323815E0,3.333215408E1
6.251152750E0,1.299981986E1,-3.211460406E1,8.661895698E0,3.571234446E1
6.261221750E0,1.963616404E1,-3.244726151E1,1.173349772E1,3.969985751E1
6.271290750E0,2.539790510E1,-3.219916883E1,1.490615951E1,4.363523402E1
6.281360750E0,2.902050312E1,-3.126938669E1,1.768757475E1,4.618240407E1
6.291429750E0,3.018206888E1,-3.004805069E1,1.934770569E1,4.677794724E1
6.301498750E0,2.931751360E1,-2.840224660E1,1.992867685E1,4.542418273E1
6.311568750E0,2.741134469E1,-2.703839524E1,1.913100671E1,4.299362805E1
6.321637750E0,2.489676129E1,-2.539212805E1,1.717414361E1,3.949126610E1
6.331706750E0,2.243907130E1,-2.417895710E1,1.465262658E1,3.609478291E1
6.341775750E0,2.040376312E1,-2.339279662E1,1.215955860E1,3.333753663E1
6.351845750E0,1.870663334E1,-2.289266321E1,1.027047174E1,3.129688083E1
6.361914750E0,1.721884908E1,-2.292667062E1,9.175012261E0,3.010484744E1
6.371983750E0,1.579300203E1,-2.347777537E1,8.846463060E0,2.964599059E1
6.382053750E0,1.401280553E1,-2.405505694E1,9.435546649E0,2.939445566E1
6.392122750E0,1.198626818E1,-2.487992833E1,1.041455766E1,2.951515661E1
6.402191750E0,1.006047016E1,-2.571323140E1,1.154693295E1,2.992849795E1
6.412261750E0,8.521207597E0,-2.623796521E1,1.321550727E1,3.058907370E1
6.422330750E0,7.530717916E0,-2.684027287E1,1.531168848E1,3.180502734E1
6.432399750E0,7.209597019E0,-2.702544717E1,1.787985927E1,3.319702473E1
6.442469750E0,7.419187540E0,-2.658833739E1,1.924471284E1,3.365030462E1
6.452538750E0,7.563067637E0,-2.566090818E1,1.846316697E1,3.250493402E1
6.462607750E0,7.220107389E0,-2.406329216E1,1.622782789E1,2.990843323E1
6.472677750E0,6.649539009E0,-2.239651059E1,1.339467999E1,2.693023408E1
6.482746750E0,6.023351330E0,-2.095389724E1,1.090475548E1,2.437745398E1
6.492815750E0,5.444490429E0,-1.983655046E1,9.030416465E0,2.246507582E1
6.502885750E0,5.419377807E0,-1.901668897E1,8.041488576E0,2.134642016E1
6.512954750E0,5.552905408E0,-1.842220489E1,7.650813879E0,2.070621512E1
6.523023750E0,5.801974576E0,-1.816532969E1,8.498657809E0,2.087748300E1
6.533093750E0,6.438077379E0,-1.789360724E1,9.953418167E0,2.146393612E1
6.543162750E0,8.243062565E0,-1.745052746E1,1.148148039E1,2.245647748E1
6.553231750E0,1.168750820E1,-1.620896828E1,1.204311247E1,2.333163214E1
6.563301750E0,1.629623914E1,-1.392063003E1,1.131073234E1,2.423394348E1
6.573370750E0,2.267942929E1,-1.119026800E1,8.969452810E0,2.683336905E1
6.583439750E0,2.996498047E1,-9.206710601E0,6.536649156E0,3.202173257E1
6.593509750E0,3.605855335E1,-1.002198379E1,6.386948156E0,3.796646594E1
6.603578750E0,4.028470565E1,-1.112575450E1,1.015272753E1,4.300834569E1
6.613647750E0,4.422937766E1,-1.149980205E1,1.505511616E1,4.811589985E1
6.623721500E0,4.994376328E1,-1.107314827E1,2.140881296E1,5.545567037E1
6.633790500E0,5.847315289E1,-9.818855023E0,2.917756167E1,6.608214303E1
6.643859500E0,6.861213595E1,-7.327667506E0,3.423988685E1,7.703044699E1
6.653929500E0,7.223799438E1,-2.956185588E0,3.432301321E1,8.003209419E1
6.663998500E0,7.194933372E1,1.646592885E0,3.024130117E1,7.806378281E1
6.674067500E0,7.190518958E1,5.161424380E0,2.488594628E1,7.626471604E1
6.684137500E0,7.167229732E1,6.680627486E0,2.007926838E1,7.473102438E1
6.694206500E0,6.869892735E1,5.918803698E0,1.678132532E1,7.096610272E1
6.704275500E0,5.707816160E1,4.328824725E0,1.596900556E1,5.942780826E1
6.714345500E0,4.572973577E1,1.951193644E0,1.543278899E1,4.830307306E1
6.724414500E0,3.734812168E1,-7.976517239E-1,1.415510337E1,3.994853430E1
6.734483500E0,3.143123762E1,-3.973132165E0,1.234126901E1,3.400022645E1
6.744553500E0,2.718203560E1,-7.366838003E0,1.040506295E1,3.002330256E1
6.754622500E0,2.395087827E1,-1.132335764E1,9.733618991E0,2.822421543E1
6.764691500E0,2.113233321E1,-1.534039363E1,1.026652604E1,2.805895117E1
6.774761500E0,1.825075049E1,-1.908362789E1,1.056151456E1,2.843976682E1
6.784830500E0,1.542743177E1,-2.246988613E1,9.747331297E0,2.894670795E1
6.794899500E0,1.287876846E1,-2.546723904E1,7.890462012E0,2.960915960E1
6.804969500E0,1.081946331E1,-2.796250090E1,6.589108036E0,3.069818541E1
6.815038500E0,9.304574865E0,-2.997700469E1,6.289803684E0,3.201183459E1
6.825107500E0,8.359987582E0,-3.115171499E1,6.834059009E0,3.297003339E1
6.835177500E0,8.153607182E0,-3.135759545E1,7.589566049E0,3.327734387E1
6.845246500E0,8.477877975E0,-3.106492126E1,8.374307413E0,3.327210201E1
6.855315500E0,9.564481847E0,-3.053703229E1,8.948612748E0,3.322750855E1
6.865385500E0,1.184619930E1,-2.995934843E1,9.502271565E0,3.358851234E1
6.875454500E0,1.448193232E1,-2.945049332E1,1.033812403E1,3.440835261E1
6.885523500E0,1.675280611E1,-2.904384988E1,1.147763175E1,3.543921217E1
6.895593500E0,1.835980224E1,-2.843818125E1,1.302784673E1,3.627033611E1
6.905662500E0,1.955870013E1,-2.727754636E1,1.395440822E1,3.635014161E1
6.915731500E0,2.091889113E1,-2.577239119E1,1.377190960E1,3.593719032E1
6.925801500E0,2.338418718E1,-2.390336379E1,1.262142432E1,3.574201117E1
6.935870500E0,2.657988232E1,-2.205189909E1,1.128617871E1,3.633392667E1
6.945939500E0,2.982974607E1,-2.042024526E1,1.062399323E1,3.767850049E1
6.956009500E0,3.336436922E1,-1.939541780E1,1.116663121E1,4.017532847E1
6.966078500E0,3.685770635E1,-1.842139096E1,1.074315948E1,4.258231602E1
6.976147500E0,3.888497110E1,-1.731991937E1,9.868301418E0,4.369672708E1
6.986217500E0,3.922013818E1,-1.650277683E1,8.928626965E0,4.347736493E1
6.996286500E0,3.871452710E1,-1.554636414E1,7.540954052E0,4.239540110E1
7.006355500E0,3.726936203E1,-1.462092999E1,5.957678912E0,4.047555902E1
7.016425500E0,3.489287349E1,-1.367832609E1,5.913029573E0,3.794170718E1
7.026494500E0,3.218873506E1,-1.299341365E1,6.233834721E0,3.526760777E1
7.036563500E0,2.911057830E1,-1.286159402E1,6.117224869E0,3.240782020E1
7.046633500E0,2.501351382E1,-1.314721296E1,5.468992016E0,2.878254603E1
7.056702500E0,1.913314328E1,-1.400180107E1,4.662686706E0,2.416336592E1
7.066771500E0,1.202468906E1,-1.660122523E1,3.758504852E0,2.084034992E1
7.076841500E0,3.648032822E0,-2.131636614E1,2.875277665E0,2.181657238E1
7.086910500E0,-6.155260422E0,-2.689522968E1,1.995977468E0,2.766269214E1
7.096979500E0,-1.544962312E1,-3.331897845E1,4.101313072E0,3.695491779E1
7.107048500E0,-2.220349634E1,-3.846830787E1,8.967914407E0,4.531257495E1
7.117118500E0,-2.522472928E1,-4.338613900E1,1.514995332E1,5.242294450E1
7.127187500E0,-2.824114879E1,-4.709815732E1,1.998758638E1,5.844058964E1
7.137256500E0,-3.384798073E1,-4.757532286E1,2.238654226E1,6.253202714E1
7.147326500E0,-3.860758621E1,-4.590908625E1,2.218020337E1,6.395429098E1
7.157395500E0,-3.866182264E1,-4.386044642E1,1.932135229E1,6.157751168E1
7.167464500E0,-3.512660541E1,-4.197215595E1,1.527710103E1,5.682367551E1
7.177534500E0,-3.005908556E1,-3.954206716E1,1.193814325E1,5.108466467E1
7.187603500E0,-2.422514075E1,-3.671865488E1,9.612532511E0,4.502796733E1
7.197672500E0,-1.670458529E1,-3.404396537E1,7.915435470E0,3.873872567E1
7.207742500E0,-7.583075055E0,-3.170378570E1,6.877200351E0,3.331559604E1
7.217811500E0,2.013152495E0,-2.991102003E1,7.284777009E0,3.085109201E1
7.227880500E0,1.050282489E1,-2.918997881E1,9.594428362E0,3.247179159E1
7.237950500E0,1.727384682E1,-2.949252311E1,1.263995648E1,3.644122944E1
7.248019500E0,2.215939430E1,-2.951144704E1,1.564174275E1,4.008276909E1
7.258088500E0,2.539175149E1,-2.931955779E1,1.761744558E1,4.259990495E1
7.268158500E0,2.627244508E1,-2.874672946E1,1.872515381E1,4.321165595E1
7.278227500E0,2.512328243E1,-2.773968456E1,1.960113922E1,4.224777010E1
7.288296500E0,2.333925249E1,-2.730376528E1,1.918772353E1,4.072327393E1
7.298366500E0,2.151394823E1,-2.625999752E1,1.771811476E1,3.829319821E1
7.308435500E0,2.016328352E1,-2.571190759E1,1.583267890E1,3.630886828E1
7.318504500E0,1.909326176E1,-2.536058583E1,1.425099069E1,3.479659026E1
7.328574500E0,1.851436636E1,-2.523347672E1,1.290589954E1,3.385369038E1
7.338643500E0,1.828216875E1,-2.505710130E1,1.168353911E1,3.314515208E1
7.348712500E0,1.791320009E1,-2.504043440E1,1.106497620E1,3.271604791E1
7.358782500E0,1.694093677E1,-2.515145431E1,1.140006376E1,3.239679685E1
7.368851500E0,1.532273270E1,-2.553261091E1,1.234265597E1,3.223416687E1
7.378920500E0,1.348722505E1,-2.607341521E1,1.368210690E1,3.238716211E1
7.388990500E0,1.173277501E1,-2.643396154E1,1.506037866E1,3.260716697E1
7.399059500E0,1.030846110E1,-2.683164705E1,1.561434153E1,3.271099685E1
7.409128500E0,8.966931490E0,-2.687051466E1,1.575400812E1,3.241325640E1
7.419198500E0,7.772266980E0,-2.631501281E1,1.538919917E1,3.145974386E1
7.429267500E0,6.775037214E0,-2.555911517E1,1.465879656E1,3.023325676E1
7.439336500E0,5.929319916E0,-2.484443573E1,1.368806053E1,2.897871327E1
7.449406500E0,5.193026826E0,-2.392871966E1,1.251025705E1,2.749650312E1
7.459475500E0,4.856778013E0,-2.298591227E1,1.105932194E1,2.596630619E1
7.469544500E0,4.610597954E0,-2.206696152E1,9.656495971E0,2.452460639E1
7.479614500E0,4.338890122E0,-2.130100667E1,8.572100008E0,2.336749347E1
7.489683500E0,3.888320641E0,-2.022558209E1,7.545300872E0,2.193455661E1
7.499752500E0,4.292771963E0,-1.924818725E1,6.407191216E0,2.073578315E1
7.509822500E0,5.497596595E0,-1.916470071E1,4.734840177E0,2.049214564E1
7.519891500E0,6.198218161E0,-1.913620255E1,4.247500480E0,2.055853634E1
7.529960500E0,6.981155074E0,-1.921344193E1,4.220028507E0,2.087346443E1
7.540030500E0,8.498543204E0,-1.933950673E1,4.662853351E0,2.163293689E1
7.550099500E0,1.075578128E1,-1.881111022E1,5.247384882E0,2.229528531E1
7.560168500E0,1.473292990E1,-1.765555540E1,5.960645204E0,2.375514999E1
7.570238500E0,2.110750360E1,-1.668236821E1,6.290397177E0,2.762964375E1
7.580307500E0,2.964843327E1,-1.838421202E1,6.294331183E0,3.544894148E1
7.590376500E0,3.779715042E1,-2.095951291E1,7.603104107E0,4.388317392E1
7.600446500E0,4.397249310E1,-2.267167120E1,1.328954238E1,5.122691443E1
7.610515500E0,4.927321863E1,-2.226088326E1,2.149159784E1,5.818320870E1
7.620584500E0,5.540424409E1,-1.955960294E1,2.953202690E1,6.575978211E1
7.630650750E0,6.302136515E1,-1.661019369E1,3.566087018E1,7.429191518E1
7.640719750E0,7.030953588E1,-1.198084196E1,3.782169002E1,8.073073544E1
7.650788750E0,7.183207599E1,-5.182205384E0,3.506921616E1,8.010338517E1
7.660858750E0,7.162951441E1,2.708933151E-1,2.830274570E1,7.701886867E1
7.670927750E0,7.155942266E1,4.157836937E0,2.181635921E1,7.492657812E1
7.680996750E0,7.129910462E1,5.893757735E0,1.881979918E1,7.397623633E1
7.691066750E0,6.760783223E1,5.876895534E0,1.861669849E1,7.037001025E1
7.701135750E0,5.605585781E1,4.381187126E0,1.836979630E1,5.915152924E1
7.711204750E0,4.576069795E1,1.878484102E0,1.731052289E1,4.896145813E1
7.721274750E0,3.792654229E1,-1.474153525E0,1.546443880E1,4.098468746E1
7.731343750E0,3.170684496E1,-5.332084724E0,1.284459617E1,3.462280745E1
7.741412750E0,2.690339005E1,-9.409775046E0,1.040619380E1,3.034180502E1
7.751482750E0,2.311196888E1,-1.339379590E1,9.000868145E0,2.818816244E1
7.761551750E0,2.000228160E1,-1.731290739E1,8.510016611E0,2.778935793E1
7.771620750E0,1.734564712E1,-2.098827653E1,7.873271198E0,2.834374049E1
7.781690750E0,1.533407045E1,-2.434368954E1,7.616978381E0,2.976184296E1
7.791759750E0,1.361847399E1,-2.731726533E1,7.318174551E0,3.138871609E1
7.801828750E0,1.208415057E1,-2.981682606E1,7.284650125E0,3.298690556E1
7.811898750E0,1.092202698E1,-3.152963223E1,7.861384978E0,3.428133247E1
7.821967750E0,1.033354449E1,-3.270040385E1,8.364439652E0,3.529960912E1
7.832036750E0,1.028900625E1,-3.306330778E1,8.972775782E0,3.577089146E1
7.842106750E0,1.076160160E1,-3.335570832E1,9.474852802E0,3.630686137E1
7.852175750E0,1.167129972E1,-3.327722232E1,1.042822143E1,3.677418340E1
7.862244750E0,1.345070217E1,-3.284243739E1,1.127530640E1,3.723814734E1
7.872314750E0,1.555335273E1,-3.185448482E1,1.168551313E1,3.732514168E1
7.882383750E0,1.787487393E1,-3.044314939E1,1.209090176E1,3.731603367E1
7.892452750E0,2.074179534E1,-2.887760652E1,1.230035955E1,3.762229495E1
7.902522750E0,2.346597335E1,-2.715853915E1,1.221822605E1,3.791468320E1
7.912591750E0,2.633206563E1,-2.580835157E1,1.262034141E1,3.897078018E1
7.922660750E0,2.945357363E1,-2.485427776E1,1.360105747E1,4.086853175E1
7.932730750E0,3.287972158E1,-2.392835947E1,1.389123023E1,4.297218583E1
7.942799750E0,3.609805012E1,-2.323477912E1,1.281260254E1,4.480052419E1
7.952868750E0,3.823927009E1,-2.249098990E1,1.151948846E1,4.583432140E1
7.962937750E0,3.905833637E1,-2.210803002E1,1.045708563E1,4.608328624E1
7.973007750E0,3.849452678E1,-2.140809960E1,1.013904738E1,4.519884514E1
7.983076750E0,3.676397782E1,-2.054819637E1,9.249869485E0,4.312051165E1
7.993146750E0,3.489291325E1,-1.945105523E1,7.352217625E0,4.061913402E1
8.003215750E0,3.270439633E1,-1.834149694E1,4.727703358E0,3.779337545E1
8.013284750E0,2.957361229E1,-1.779288544E1,3.642197886E0,3.470520021E1
8.023354750E0,2.635394357E1,-1.792915246E1,3.392269177E0,3.205452136E1
8.033423750E0,2.352283869E1,-1.806903073E1,3.180195343E0,2.983165188E1
8.043492750E0,1.993672262E1,-1.867833165E1,3.378832276E0,2.752761322E1
8.053561750E0,1.500341040E1,-2.049976037E1,3.483474047E0,2.564131608E1
8.063631750E0,8.247490076E0,-2.313704642E1,4.630280267E0,2.499566972E1
8.073700750E0,1.189528316E-1,-2.704562240E1,5.480881160E0,2.759565000E1
8.083769750E0,-8.657709677E0,-3.065974663E1,7.090299786E0,3.263814259E1
8.093839750E0,-1.461600898E1,-3.547909896E1,9.471067899E0,3.952335143E1
8.103908750E0,-1.984954531E1,-3.969850591E1,1.486975241E1,4.680903072E1
8.113977750E0,-2.596508034E1,-4.238454838E1,2.098872326E1,5.395518364E1
8.124047750E0,-3.230135711E1,-4.270994827E1,2.425149064E1,5.878479523E1
8.134116750E0,-3.530323810E1,-4.248983100E1,2.322917281E1,5.992744637E1
8.144185750E0,-3.474183055E1,-4.180791000E1,2.084784278E1,5.821965886E1
8.154255750E0,-3.227062648E1,-4.061568612E1,1.917311602E1,5.530493351E1
8.164324750E0,-2.986006739E1,-3.916420371E1,1.826182161E1,5.252573279E1
8.174393750E0,-2.946297362E1,-3.666291922E1,1.794102348E1,5.034001176E1
8.184463750E0,-2.856787249E1,-3.395844867E1,1.705374827E1,4.754082356E1
8.194532750E0,-2.435132834E1,-3.166543732E1,1.540627070E1,4.281401978E1
8.204601750E0,-1.709981848E1,-2.957394208E1,1.342470779E1,3.670483103E1
8.214671750E0,-8.172336398E0,-2.801930543E1,1.228300034E1,3.166608053E1
8.224740750E0,1.097573833E0,-2.753822927E1,1.220722042E1,3.014257736E1
8.234809750E0,9.111402740E0,-2.735911970E1,1.317923933E1,3.170538503E1
8.244879750E0,1.499812803E1,-2.653961839E1,1.556668204E1,3.422888807E1
8.254948750E0,1.877063345E1,-2.583944005E1,1.810539456E1,3.671264979E1
8.265017750E0,2.089934272E1,-2.546514340E1,1.926863379E1,3.816459488E1
8.275087750E0,2.189926103E1,-2.497528940E1,1.963698499E1,3.858696534E1
8.285156750E0,2.233499788E1,-2.456576679E1,1.900971441E1,3.825830982E1
8.295225750E0,2.265746013E1,-2.413935508E1,1.765564895E1,3.752053975E1
8.305295750E0,2.317393767E1,-2.388856332E1,1.561295691E1,3.676219890E1
8.315364750E0,2.391801224E1,-2.373639538E1,1.358173944E1,3.633113570E1
8.325433750E0,2.435946299E1,-2.368115323E1,1.190719160E1,3.599946759E1
8.335503750E0,2.389147523E1,-2.378955827E1,1.087240400E1,3.542534178E1
8.345572750E0,2.257396423E1,-2.421435147E1,1.063864401E1,3.477210699E1
8.355641750E0,2.019254532E1,-2.467436362E1,1.146860950E1,3.388350794E1
8.365711750E0,1.712917969E1,-2.511083721E1,1.267273831E1,3.293267737E1
8.375780750E0,1.410863672E1,-2.551431381E1,1.397671418E1,3.233237353E1
8.385849750E0,1.177066730E1,-2.576582126E1,1.510898422E1,3.210463453E1
8.395919750E0,1.032847261E1,-2.568860527E1,1.571543872E1,3.183640685E1
8.405988750E0,9.624059127E0,-2.546617251E1,1.599216054E1,3.157368612E1
8.416057750E0,9.528710920E0,-2.480814323E1,1.549282469E1,3.076146810E1
8.426127750E0,9.527006457E0,-2.401740555E1,1.452001290E1,2.963832647E1
8.436196750E0,9.067469686E0,-2.285740918E1,1.356006849E1,2.808123249E1
8.446265750E0,8.253798637E0,-2.163898743E1,1.243105769E1,2.628501787E1
8.456335750E0,7.478488247E0,-2.042269875E1,1.072957640E1,2.425156120E1
8.466404750E0,6.810547940E0,-1.936038713E1,8.408632908E0,2.217911767E1
8.476473750E0,6.481048567E0,-1.842173477E1,5.980912238E0,2.042389811E1
8.486542750E0,6.298870962E0,-1.762475226E1,4.499963372E0,1.924986592E1
8.496612750E0,6.045829196E0,-1.695957067E1,3.516550577E0,1.834516874E1
8.506681750E0,5.648621989E0,-1.670351642E1,3.394322135E0,1.795649782E1
8.516750750E0,5.344153962E0,-1.667194263E1,3.904195247E0,1.793756932E1
8.526820750E0,5.665917469E0,-1.646423432E1,4.667760919E0,1.802669200E1
8.536889750E0,7.126786412E0,-1.622128485E1,4.413764888E0,1.825931234E1
8.546958750E0,9.030641583E0,-1.604146309E1,4.131684095E0,1.886668596E1
8.557028750E0,1.157257884E1,-1.540634905E1,4.595356310E0,1.980902501E1
8.567097750E0,1.616863652E1,-1.485064605E1,4.941029373E0,2.250289462E1
8.577166750E0,2.274592617E1,-1.509991519E1,5.165254891E0,2.778604783E1
8.587236750E0,3.079425832E1,-1.637658573E1,6.384651954E0,3.545761817E1
8.597305750E0,3.847110518E1,-1.718376228E1,8.883252572E0,4.306065252E1
8.607375750E0,4.522380661E1,-1.633929570E1,1.261908426E1,4.971324326E1
8.617444750E0,5.150240177E1,-1.343850371E1,1.660638014E1,5.575717560E1
8.627514000E0,5.774687257E1,-9.151394772E0,2.072265857E1,6.203126548E1
8.637584000E0,6.469870211E1,-4.905230380E0,2.309090721E1,6.887070012E1
8.647653000E0,7.073060090E1,-2.535703540E-2,2.391284096E1,7.466352864E1
8.657722000E0,7.181325264E1,4.439011996E0,2.279036500E1,7.547349746E1
8.667792000E0,7.160774405E1,7.087448099E0,2.026877197E1,7.475776914E1
8.677861000E0,7.144444302E1,7.592601339E0,1.728544536E1,7.389683792E1
8.687930000E0,7.095108770E1,6.232944775E0,1.479278902E1,7.274429912E1
8.698000000E0,6.510132734E1,3.656090285E0,1.417297130E1,6.672647850E1
8.708069000E0,5.349248992E1,2.896535218E-1,1.419379089E1,5.534432290E1
8.718138000E0,4.312536253E1,-3.094301500E0,1.342958553E1,4.527389273E1
8.728208000E0,3.459601971E1,-6.326971511E0,1.168671883E1,3.706068732E1
8.738277000E0,2.819492304E1,-9.640104471E0,1.050487843E1,3.159490102E1
8.748346000E0,2.321884195E1,-1.293696814E1,1.061573345E1,2.862120827E1
8.758416000E0,1.956354864E1,-1.631162901E1,1.109113781E1,2.778155889E1
8.768485000E0,1.669724704E1,-1.935585554E1,1.079085405E1,2.774688692E1
8.778554000E0,1.429071434E1,-2.208578955E1,9.226806897E0,2.787724129E1
8.788624000E0,1.229092448E1,-2.451652855E1,7.032805869E0,2.831231809E1
8.798693000E0,1.045809720E1,-2.669789316E1,5.912803870E0,2.927645037E1
8.808762000E0,9.424338121E0,-2.839722267E1,5.315032489E0,3.038864878E1
8.818832000E0,8.797035962E0,-2.939758538E1,5.201583642E0,3.112334076E1
8.828901000E0,8.482059903E0,-2.966653391E1,5.979876112E0,3.142940490E1
8.838970000E0,8.783700802E0,-2.989996411E1,6.786521730E0,3.189385726E1
8.849040000E0,9.851978331E0,-2.992637715E1,7.682848434E0,3.242954959E1
8.859109000E0,1.118379162E1,-2.955329907E1,8.855381234E0,3.281603964E1
8.869178000E0,1.311454223E1,-2.915135912E1,9.620851929E0,3.338193746E1
8.879248000E0,1.568629386E1,-2.825310050E1,1.047738131E1,3.397165027E1
8.889317000E0,1.884382422E1,-2.724875467E1,1.126425867E1,3.499239726E1
8.899386000E0,2.181149199E1,-2.619560097E1,1.164784303E1,3.602253378E1
8.909455000E0,2.439318271E1,-2.481323733E1,1.179606059E1,3.674059274E1
8.919525000E0,2.663737214E1,-2.352114534E1,1.202369036E1,3.751483710E1
8.929594000E0,2.893283464E1,-2.232108151E1,1.297351908E1,3.877694931E1
8.939664000E0,3.129129504E1,-2.086304554E1,1.390545182E1,4.009704983E1
8.949733000E0,3.324866452E1,-1.959345364E1,1.364304165E1,4.093299040E1
8.959802000E0,3.487099789E1,-1.876438395E1,1.230213243E1,4.146602297E1
8.969872000E0,3.601572601E1,-1.794939669E1,1.099592994E1,4.171599018E1
8.979941000E0,3.680336700E1,-1.720672546E1,1.007523672E1,4.185773069E1
8.990010000E0,3.622158308E1,-1.632436893E1,9.996401049E0,4.096847734E1
9.000080000E0,3.468724329E1,-1.572277230E1,9.935289459E0,3.935886675E1
9.010149000E0,3.297113461E1,-1.497671319E1,1.015900159E1,3.761120802E1
9.020218000E0,3.041831042E1,-1.433947427E1,1.007094837E1,3.510438908E1
9.030287000E0,2.667220985E1,-1.374124564E1,1.034274683E1,3.173643052E1
9.040357000E0,2.306448715E1,-1.311677353E1,1.033150615E1,2.847385353E1
9.050426000E0,1.998175086E1,-1.443499906E1,1.002726850E1,2.661175828E1
9.060495000E0,1.586064730E1,-1.763122630E1,1.084977294E1,2.607945257E1
9.070565000E0,9.529359376E0,-1.985795829E1,1.256479520E1,2.535786418E1
9.080634000E0,1.982140617E0,-2.202330387E1,1.343068013E1,2.587156670E1
9.090703000E0,-5.821025974E0,-2.591755417E1,1.188461667E1,2.910065413E1
9.100773000E0,-1.306243185E1,-2.922741035E1,1.097726680E1,3.384330108E1
9.110842000E0,-1.625978058E1,-3.384854908E1,9.394606783E0,3.870869897E1
9.120911000E0,-1.801064043E1,-3.660151878E1,1.041671879E1,4.210180965E1
9.130981000E0,-1.821385456E1,-3.899068174E1,1.334544995E1,4.505683960E1
9.141050000E0,-1.921065280E1,-4.087485343E1,1.526180237E1,4.767311020E1
9.151119000E0,-2.073071136E1,-4.146187178E1,1.503637701E1,4.873337500E1
9.161189000E0,-2.255275287E1,-4.128897663E1,1.469629359E1,4.928881515E1
9.171258000E0,-2.477761141E1,-4.017691574E1,1.589301749E1,4.980665207E1
9.181327000E0,-2.616625262E1,-3.826732971E1,1.689347726E1,4.934015477E1
9.191397000E0,-2.577398631E1,-3.575632013E1,1.674510884E1,4.715094347E1
9.201466000E0,-2.268328144E1,-3.313930053E1,1.587002857E1,4.318104102E1
9.211535000E0,-1.700513919E1,-3.083822705E1,1.332293466E1,3.765197995E1
9.221605000E0,-1.036964637E1,-2.855562608E1,1.027829648E1,3.207174341E1
9.231674000E0,-3.845922480E0,-2.657877836E1,7.880618809E0,2.798797477E1
9.241743000E0,2.213990319E0,-2.563946995E1,6.696438357E0,2.659184948E1
9.251813000E0,7.891116316E0,-2.570151826E1,7.139179586E0,2.781736225E1
9.261882000E0,1.332136760E1,-2.651935896E1,9.237149452E0,3.108150840E1
9.271951000E0,1.824732520E1,-2.744245422E1,1.261495847E1,3.528725474E1
9.282021000E0,2.246525514E1,-2.837465476E1,1.627917229E1,3.968400397E1
9.292090000E0,2.555685113E1,-2.891403000E1,1.983658788E1,4.338967607E1
9.302159000E0,2.745946494E1,-2.894345319E1,2.265122466E1,4.587835738E1
9.312229000E0,2.787900266E1,-2.786683110E1,2.416753164E1,4.623709171E1
9.322298000E0,2.767880803E1,-2.640365426E1,2.356469072E1,4.492843221E1
9.332367000E0,2.674928083E1,-2.487450211E1,2.168953310E1,4.248176935E1
9.342437000E0,2.553614263E1,-2.373307416E1,1.909992993E1,3.975123536E1
9.352506000E0,2.374078781E1,-2.275529808E1,1.654708235E1,3.681351017E1
9.362575000E0,2.072414143E1,-2.217322648E1,1.504011455E1,3.387251180E1
9.372645000E0,1.669344752E1,-2.225369820E1,1.418581295E1,3.122716065E1
9.382714000E0,1.209612333E1,-2.249194417E1,1.349553628E1,2.888482736E1
9.392783000E0,8.017478739E0,-2.297350682E1,1.339271884E1,2.777457288E1
9.402853000E0,4.996693112E0,-2.339573660E1,1.347432141E1,2.745696215E1
9.412922000E0,3.169044703E0,-2.368530943E1,1.369929771E1,2.754464530E1
9.422991000E0,2.210127649E0,-2.375873876E1,1.361141055E1,2.747058115E1
9.433060000E0,1.822009939E0,-2.364858190E1,1.293955846E1,2.701864761E1
9.443130000E0,1.873798728E0,-2.321304385E1,1.218668032E1,2.628443844E1
9.453199000E0,2.226833729E0,-2.238849055E1,1.148025949E1,2.525865506E1
9.463269000E0,2.669476724E0,-2.134251021E1,1.016529904E1,2.378995907E1
9.473338000E0,3.017846816E0,-2.016096334E1,8.638763528E0,2.214046245E1
9.483407000E0,3.537277787E0,-1.882726374E1,7.320934437E0,2.050790762E1
9.493477000E0,4.160563493E0,-1.757215188E1,5.882839229E0,1.899206697E1
9.503546000E0,4.551420039E0,-1.632027470E1,4.618319787E0,1.756119781E1
9.513615000E0,4.602215386E0,-1.528855689E1,3.904106369E0,1.643661780E1
9.523685000E0,4.509361017E0,-1.442209192E1,3.622201577E0,1.553870704E1
9.533754000E0,4.660639011E0,-1.336908556E1,3.550765559E0,1.459664142E1
9.543823000E0,5.503019303E0,-1.241101694E1,3.593621557E0,1.404388404E1
9.553892000E0,7.403693004E0,-1.084184645E1,3.783885276E0,1.366301915E1
9.563962000E0,1.138356175E1,-9.438915814E0,2.767849696E0,1.504458712E1
9.574031000E0,1.705953701E1,-8.452927905E0,9.554699747E-1,1.906286222E1
9.584100000E0,2.370033443E1,-8.166061167E0,-1.109535483E-1,2.506796198E1
9.594170000E0,3.238252114E1,-9.284561600E0,1.181673167E0,3.370796806E1
9.604239000E0,4.518836313E1,-1.330218874E1,4.193566933E0,4.729188504E1
9.614308000E0,5.869066931E1,-1.756172162E1,9.944622785E0,6.206371124E1
9.624378000E0,6.573291083E1,-1.869746374E1,2.322211639E1,7.217809506E1
9.634447000E0,6.784646879E1,-1.829445726E1,4.223845219E1,8.198729985E1
9.644516000E0,6.995126996E1,-1.456084167E1,6.063500885E1,9.371127241E1
9.654586000E0,7.166848493E1,-9.993817749E0,6.972690996E1,1.004892536E2
9.664655000E0,7.139672974E1,-6.845162871E0,6.239552128E1,9.506603151E1
9.674725000E0,7.105875132E1,-3.772494900E0,4.451967087E1,8.393794702E1
9.684794000E0,7.051422585E1,-2.283994939E0,2.925619736E1,7.637668338E1
9.694863000E0,6.454966827E1,-2.337884048E0,1.987838612E1,6.758162184E1
9.704933000E0,5.211675234E1,-4.543913676E0,1.486188323E1,5.438454375E1
9.715002000E0,4.167304514E1,-7.890989431E0,1.125260049E1,4.388087765E1
9.725071000E0,3.350919539E1,-1.095455972E1,8.365668737E0,3.623331296E1
9.735141000E0,2.766429290E1,-1.401605892E1,6.377078640E0,3.166117720E1
9.745210000E0,2.353399986E1,-1.711225668E1,5.776832133E0,2.966564119E1
9.755279000E0,2.016476403E1,-2.045846032E1,6.114440424E0,2.936924733E1
9.765349000E0,1.703193815E1,-2.384167801E1,6.896910145E0,3.010116106E1
9.775418000E0,1.415394796E1,-2.719095845E1,7.233979908E0,3.149623676E1
9.785487000E0,1.183427565E1,-3.043207477E1,6.783799267E0,3.334938062E1
9.795556000E0,9.599869781E0,-3.275615588E1,6.029235967E0,3.466229845E1
9.805626000E0,7.411985525E0,-3.426941997E1,5.453672311E0,3.548342171E1
9.815695000E0,5.616883888E0,-3.524611080E1,5.500914890E0,3.611229397E1
9.825765000E0,4.426410077E0,-3.554222316E1,5.628882959E0,3.625640711E1
9.835834000E0,3.432291030E0,-3.500345369E1,6.190272964E0,3.571192898E1
9.845903000E0,2.947540772E0,-3.375311784E1,7.231340475E0,3.464467125E1
9.855972000E0,3.356074620E0,-3.240947914E1,8.677217742E0,3.371841756E1
9.866042000E0,4.500452199E0,-3.082663085E1,1.054879453E1,3.289091524E1
9.876111000E0,6.844834843E0,-2.897238287E1,1.192545830E1,3.206972543E1
9.886180000E0,9.754799361E0,-2.628163222E1,1.230955371E1,3.061707719E1
9.896250000E0,1.368427855E1,-2.339509340E1,1.281533319E1,2.998037091E1
9.906319000E0,1.894709307E1,-2.126893119E1,1.313836496E1,3.136839816E1
9.916388000E0,2.440323758E1,-1.970826489E1,1.417021492E1,3.441988815E1
9.926458000E0,2.976242357E1,-1.916512404E1,1.546059016E1,3.862814627E1
9.936527000E0,3.462056398E1,-1.886102907E1,1.500516223E1,4.218384479E1
9.946596000E0,3.847335986E1,-1.849450688E1,1.290785602E1,4.459662488E1
9.956666000E0,4.051703658E1,-1.748597211E1,9.640741233E0,4.517004942E1
9.966735000E0,4.057662672E1,-1.650957831E1,6.356651977E0,4.426551521E1
9.976804000E0,3.870754786E1,-1.555680727E1,4.417806484E0,4.195003609E1
9.986874000E0,3.597630408E1,-1.421378486E1,4.539484410E0,3.894782476E1
9.996943000E0,3.316304491E1,-1.349742025E1,4.787744907E0,3.612326677E1