"Time (s)","Linear Acceleration x (m/s^2)","Linear Acceleration y (m/s^2)","Linear Acceleration z (m/s^2)","Absolute acceleration (m/s^2)"
8.877833316E-3,5.351827848E-1,1.495507264E-1,-8.398127800E-1,1.007011191E0
1.894683333E-2,5.547458142E-1,5.757110059E-2,-7.654772005E-1,9.471075412E-1
2.901583334E-2,5.675412762E-1,1.315500730E-1,-6.816607994E-1,8.966994855E-1
3.908583330E-2,5.930748975E-1,2.457011712E-1,-7.252196324E-1,9.685300278E-1
4.915483331E-2,6.591589594E-1,1.746615940E-1,-7.062138426E-1,9.817001567E-1
5.922383332E-2,6.377786154E-1,1.096224296E-1,-6.430370164E-1,9.122912056E-1
6.929283333E-2,6.773812222E-1,1.644962096E-1,-4.840868908E-1,8.486721635E-1
7.936283335E-2,6.571369922E-1,1.262396318E-1,-4.738840842E-1,8.199582895E-1
8.943183330E-2,6.396333522E-1,2.502076203E-1,-4.588754145E-1,8.260153295E-1
9.950083331E-2,7.012097955E-1,2.297464585E-1,-4.948358274E-1,8.884487090E-1
1.095698333E-1,7.372707438E-1,1.646400511E-1,-4.079017639E-1,8.585210220E-1
1.196398333E-1,7.630312371E-1,-1.035465878E-1,-3.189527134E-1,8.334682946E-1
1.297088334E-1,4.425827694E-1,3.012766171E-1,-1.695604831E-1,5.616029426E-1
1.397778333E-1,6.021544540E-1,1.242737979E-1,-1.302929217E-1,6.284983761E-1
1.498468333E-1,6.137494826E-1,-1.175348818E-1,-2.583182931E-2,6.254359754E-1
1.599168333E-1,5.593452340E-1,-1.468621767E-1,1.345485252E-1,5.937498593E-1
1.699858333E-1,5.415954262E-1,1.063579291E-1,2.052021861E-1,5.888510439E-1
1.800548333E-1,1.850520962E-1,8.594904149E-1,1.315635216E-1,8.889752594E-1
1.901238333E-1,3.615444535E-1,2.403702646E-1,-2.917865860E-1,5.230981435E-1
2.001928333E-1,5.308728021E-1,-2.961491936E-1,-2.723668134E-1,6.661185765E-1
2.102628333E-1,4.199961448E-1,-1.467417240E-1,3.452431837E-2,4.462306845E-1
2.203318333E-1,3.027056766E-1,1.005762023E-1,1.369184200E-1,3.471209484E-1
2.304008333E-1,1.215764773E-1,6.083946025E-1,2.043508315E-1,6.532106051E-1
2.404698333E-1,1.128097469E-1,4.624714887E-1,7.243178090E-2,4.815104150E-1
2.505398333E-1,2.055027330E-1,-9.021844447E-2,-1.117379340E-1,2.507112021E-1
2.606088333E-1,1.377253175E-1,1.700487256E-2,8.481265705E-2,1.626364521E-1
2.706778334E-1,1.440718853E-1,5.374877572E-2,1.248731375E-2,1.542775811E-1
2.807468333E-1,1.442829698E-1,1.607633471E-2,-3.390683413E-2,1.490828539E-1
2.908168333E-1,7.905435562E-2,3.120974743E-1,2.545375200E-1,4.104190221E-1
3.008858333E-1,6.105311751E-2,1.716520321E-1,2.894570553E-1,3.420194295E-1
3.109548333E-1,2.158265769E-2,-2.623119414E-2,3.497582940E-1,3.514039711E-1
3.210238333E-1,-4.951012909E-2,-1.100644791E-1,4.405385828E-1,4.567709332E-1
3.310938333E-1,-9.329407990E-2,-1.115911871E-1,5.545160186E-1,5.732751462E-1
3.411628333E-1,-1.617895335E-1,-8.852918386E-2,5.653613611E-1,5.946820480E-1
3.512318333E-1,-2.542650032E-1,3.153871179E-2,5.615374283E-1,6.172274018E-1
3.613008333E-1,-2.542106241E-1,-4.127140224E-2,5.844572711E-1,6.386835459E-1
3.713708333E-1,-2.749822730E-1,-1.299520290E-1,5.329913215E-1,6.136632049E-1
3.814398333E-1,-2.963064837E-1,-8.955127716E-2,4.781888775E-1,5.696328345E-1
3.915088333E-1,-3.211910641E-1,-9.169252753E-2,3.526656027E-1,4.857409254E-1
4.015778333E-1,-3.120489424E-1,-5.094971359E-2,3.573585049E-1,4.771535569E-1
4.116468334E-1,-3.190170693E-1,-3.748416066E-2,3.402027011E-1,4.678833516E-1
4.217168333E-1,-3.495091295E-1,-6.382469773E-2,2.991610944E-1,4.644648362E-1
4.317858333E-1,-3.045142204E-1,-3.177084625E-2,4.031970211E-1,5.062668614E-1
4.418548333E-1,-2.716207087E-1,-7.175352216E-2,3.827061117E-1,4.747529307E-1
4.519238333E-1,-2.495884001E-1,-8.961559653E-2,4.167218502E-1,4.939457714E-1
4.619938333E-1,-2.858347052E-1,-2.096402228E-1,4.079229601E-1,5.404180262E-1
4.720628333E-1,-3.650679857E-1,-2.383389419E-1,4.301937620E-1,6.124922516E-1
4.821318333E-1,-3.816980517E-1,-9.692870915E-2,4.868859529E-1,6.262160238E-1
4.922008333E-1,-3.936813354E-1,-6.968302310E-2,4.413069800E-1,5.954767571E-1
5.022708333E-1,-3.639447355E-1,-1.859648466E-1,3.732734565E-1,5.535085979E-1
5.123398333E-1,-3.571350682E-1,-1.180038285E-1,5.616028440E-1,6.759201986E-1
5.224088333E-1,-3.808841193E-1,-1.334702986E-1,6.113369215E-1,7.325434216E-1
5.324778333E-1,-3.569783628E-1,-1.412277997E-1,5.686895232E-1,6.861389194E-1
5.425478333E-1,-3.526233566E-1,-6.026666701E-2,3.681184781E-1,5.133093771E-1
5.526168333E-1,-3.367224383E-1,-1.863507628E-3,1.508980711E-1,3.689928197E-1
5.626858333E-1,-2.756149417E-1,-9.623055160E-2,2.926969975E-3,2.919460264E-1
5.727548333E-1,-2.236092210E-1,-1.706416333E-1,-8.980036855E-2,2.952689569E-1
5.828238333E-1,-2.593696225E-1,-2.670715749E-1,-2.797307968E-2,3.733394171E-1
5.928938334E-1,-2.338395095E-1,-4.008699024E-1,2.107886159E-1,5.097150532E-1
6.029628333E-1,-1.036658710E-1,-5.471157825E-1,4.430237956E-1,7.115844123E-1
6.130318333E-1,-2.152593970E-2,-7.447236049E-1,8.916711509E-1,1.161961297E0
6.231008333E-1,3.325019181E-2,-8.721122146E-1,1.490666939E0,1.727360186E0
6.331708333E-1,6.430884719E-2,-9.604718292E-1,1.773806516E0,2.018175245E0
6.432398333E-1,5.867037714E-2,-9.492106766E-1,2.057746139E0,2.266883829E0
6.533088333E-1,3.670414209E-2,-9.090964383E-1,2.352759657E0,2.522554565E0
6.633778333E-1,-1.513961077E-2,-8.685705560E-1,2.718341321E0,2.853773564E0
6.734478333E-1,8.246328235E-2,-1.284173688E0,2.721344451E0,3.010252128E0
6.835168333E-1,-1.207338935E-1,-7.897956973E-1,2.908958212E0,3.016685565E0
6.935858333E-1,-7.936928666E-1,2.072995824E-1,2.528423756E0,2.658166318E0
7.036548333E-1,-9.671686453E-1,4.517547119E-1,1.997687194E0,2.265005880E0
7.137248333E-1,-1.116255687E0,7.737445056E-1,1.320332869E0,1.894198038E0
7.237938333E-1,-1.425402072E0,1.073621884E0,5.229482169E-1,1.859545604E0
7.338628334E-1,-1.436858522E0,1.189551705E0,2.562027705E-1,1.882879585E0
7.439318333E-1,-1.461225623E0,1.426588472E0,-2.092494826E-1,2.052832272E0
7.540008333E-1,-1.719660276E0,2.050120347E0,-9.738466772E-1,2.847560755E0
7.640708333E-1,-2.135834681E0,2.596819807E0,-2.224114627E0,4.031370582E0
7.741398333E-1,-2.595034068E0,3.389892284E0,-3.787980666E0,5.707395995E0
7.842088333E-1,-2.920467287E0,4.380704146E0,-5.645208385E0,7.719331299E0
7.942778333E-1,-2.592295232E0,4.876401268E0,-8.057285414E0,9.768271707E0
8.043484167E-1,-1.964683755E0,5.329037740E0,-9.711915296E0,1.125077438E1
8.144174166E-1,-1.775367869E0,6.679476169E0,-1.053558099E1,1.260023015E1
8.244864166E-1,-9.403749490E-1,6.319860127E0,-1.108583790E1,1.279534052E1
8.345554167E-1,1.414727980E-1,5.290444947E0,-1.117378002E1,1.236374467E1
8.446254167E-1,9.221731514E-1,5.028625926E0,-1.057657114E1,1.174739712E1
8.546944167E-1,1.950187338E0,4.222715303E0,-1.050095846E1,1.148497643E1
8.647634166E-1,3.360593056E0,2.927940028E0,-1.068401958E1,1.157647152E1
8.748324167E-1,5.515332955E0,1.634553468E0,-1.100306705E1,1.241604394E1
8.849024167E-1,8.651877664E0,-1.256145644E-1,-1.173681192E1,1.458161583E1
8.949714167E-1,1.199022323E1,-1.957601607E0,-1.268740313E1,1.756609961E1
9.050404166E-1,1.475981072E1,-3.570304030E0,-1.357402813E1,2.036794843E1
9.151094166E-1,1.711909441E1,-5.087137259E0,-1.379541424E1,2.256669699E1
9.251794167E-1,1.934875468E1,-6.129414559E0,-1.411257073E1,2.472061252E1
9.352484167E-1,2.146844520E1,-6.937103321E0,-1.468042074E1,2.691713757E1
9.453174167E-1,2.302074530E1,-7.633194464E0,-1.553286876E1,2.880087471E1
9.553864166E-1,2.419634906E1,-8.495488034E0,-1.643687052E1,3.045993003E1
9.654554166E-1,2.517166229E1,-9.726343886E0,-1.650225643E1,3.163129487E1
9.755254167E-1,2.608875597E1,-1.084535478E1,-1.568865730E1,3.231685127E1
9.855944167E-1,2.704930147E1,-1.182935347E1,-1.420947780E1,3.276442542E1
9.956634167E-1,2.815677113E1,-1.302789468E1,-1.201180531E1,3.326880321E1
1.005732417E0,2.899083200E1,-1.433467020E1,-9.006121868E0,3.357173426E1
1.015802417E0,2.940924940E1,-1.559997960E1,-4.858301505E0,3.364322231E1
1.025871417E0,2.940065867E1,-1.647727011E1,-6.021576700E-1,3.370848193E1
1.035940417E0,2.877898270E1,-1.686721156E1,3.281857666E0,3.351870017E1
1.046009417E0,2.708911399E1,-1.669498767E1,6.617610288E0,3.250131499E1
1.056079417E0,2.478407375E1,-1.618471520E1,8.829858137E0,3.088950813E1
1.066148417E0,2.232110256E1,-1.581490336E1,9.801903945E0,2.905890756E1
1.076217417E0,1.999931122E1,-1.603482416E1,9.658448356E0,2.739294909E1
1.086286417E0,1.766596812E1,-1.636318742E1,9.060242527E0,2.572796779E1
1.096356417E0,1.566490708E1,-1.721014842E1,8.321624000E0,2.471493371E1
1.106425417E0,1.417772274E1,-1.815466788E1,8.229360200E0,2.446062463E1
1.116494417E0,1.289513131E1,-1.883851261E1,8.283516526E0,2.428560510E1
1.126563417E0,1.208146202E1,-1.954712030E1,7.987987722E0,2.432816443E1
1.136633417E0,1.168131951E1,-2.006247284E1,7.107359623E0,2.427901569E1
1.146702417E0,1.197482635E1,-2.054118439E1,6.134496374E0,2.455542237E1
1.156771417E0,1.270933837E1,-2.112600185E1,5.244254283E0,2.520590087E1
1.166840417E0,1.346502200E1,-2.160789194E1,5.270942144E0,2.599982005E1
1.176909417E0,1.457753898E1,-2.188001434E1,5.440033681E0,2.684834514E1
1.186979417E0,1.594374091E1,-2.209652972E1,5.277954125E0,2.775457259E1
1.197048417E0,1.755997096E1,-2.217771714E1,5.190925922E0,2.876020566E1
1.207117417E0,1.962275989E1,-2.202619239E1,5.143182821E0,2.994425131E1
1.217186417E0,2.160024612E1,-2.129022207E1,4.513316658E0,3.066291270E1
1.227256417E0,2.393026800E1,-2.043892828E1,3.513567327E0,3.166627024E1
1.237325417E0,2.656303064E1,-1.934298465E1,2.686741798E0,3.296914063E1
1.247394417E0,2.965112298E1,-1.798353040E1,2.131262743E0,3.474390221E1
1.257463417E0,3.285769629E1,-1.713918310E1,1.583754027E0,3.709296537E1
1.267533417E0,3.533408567E1,-1.599194770E1,1.095719389E0,3.880000776E1
1.277602417E0,3.662673665E1,-1.522293125E1,1.557102126E0,3.969483645E1
1.287671417E0,3.617750443E1,-1.519714854E1,2.867293585E0,3.934445988E1
1.297740417E0,3.378890982E1,-1.505936124E1,4.060765848E0,3.721511262E1
1.307810417E0,3.004135680E1,-1.472712946E1,5.536306332E0,3.391197648E1
1.317879417E0,2.546948203E1,-1.366927226E1,6.161481274E0,2.955515810E1
1.327948417E0,2.094463993E1,-1.292864521E1,5.789390198E0,2.528526938E1
1.338017417E0,1.694869485E1,-1.309246782E1,5.122224061E0,2.202063010E1
1.348087417E0,1.335341970E1,-1.113325648E1,3.707620043E0,1.777666065E1
1.358156417E0,9.567615370E0,-1.141683825E1,2.790621677E0,1.515490115E1
1.368225417E0,5.475316365E0,-1.579292719E1,3.738356516E0,1.712807485E1
1.378294417E0,2.247865579E0,-1.988560860E1,6.270689721E0,2.097169232E1
1.388363417E0,1.042114162E-1,-2.433286283E1,1.018701677E1,2.637943108E1
1.398433417E0,-2.369778271E0,-3.018511177E1,1.329606319E1,3.306874836E1
1.408502417E0,-5.684013432E0,-3.389457368E1,1.534285764E1,3.763712814E1
1.418571417E0,-8.998259118E0,-3.583822325E1,1.792619494E1,4.106939710E1
1.428640417E0,-1.114870131E1,-3.794194619E1,2.056517200E1,4.457365950E1
1.438710417E0,-1.133905625E1,-4.024181515E1,2.312690267E1,4.777898608E1
1.448779417E0,-1.049099012E1,-4.186721480E1,2.414387381E1,4.945554763E1
1.458848417E0,-1.101340025E1,-4.187956880E1,2.411267774E1,4.956424614E1
1.468917417E0,-1.358242123E1,-4.130971320E1,2.418435993E1,4.975799268E1
1.478986417E0,-1.621321219E1,-4.063414461E1,2.508743900E1,5.043194972E1
1.489056417E0,-1.720401235E1,-3.967819502E1,2.491851527E1,4.991261969E1
1.499125417E0,-1.594551496E1,-3.818330522E1,2.352442446E1,4.759855871E1
1.509194417E0,-1.162513011E1,-3.611688050E1,2.100430726E1,4.336765650E1
1.519263417E0,-4.575674289E0,-3.464297987E1,1.765743352E1,3.915172803E1
1.529333417E0,3.717329929E0,-3.426968426E1,1.505049803E1,3.761312659E1
1.539402417E0,1.211532792E1,-3.452035674E1,1.477531520E1,3.945562240E1
1.549471417E0,2.039655000E1,-3.502006446E1,1.872093446E1,4.464188117E1
1.559540417E0,2.839605323E1,-3.591075913E1,2.431066446E1,5.183557530E1
1.569610417E0,3.417172469E1,-3.614833852E1,2.838313556E1,5.727138491E1
1.579679417E0,3.771580630E1,-3.518369762E1,2.938750010E1,5.936328651E1
1.589748417E0,4.053530796E1,-3.356821017E1,2.713078125E1,5.921161386E1
1.599817417E0,4.216268163E1,-3.103659968E1,2.277079788E1,5.709178118E1
1.609887417E0,4.256985834E1,-2.829409884E1,1.817400228E1,5.424982237E1
1.619956417E0,4.027654761E1,-2.622354364E1,1.588711882E1,5.061892011E1
1.630025417E0,3.557255852E1,-2.492501972E1,1.522705471E1,4.602745618E1
1.640094417E0,3.025739973E1,-2.372870044E1,1.595622121E1,4.163126780E1
1.650164417E0,2.427372409E1,-2.425422714E1,1.744873353E1,3.849596755E1
1.660233417E0,1.891836219E1,-2.502056790E1,2.012677584E1,3.726956334E1
1.670302417E0,1.537416364E1,-2.491733881E1,2.185466081E1,3.653580272E1
1.680371417E0,1.415703529E1,-2.463423301E1,2.056452179E1,3.507373149E1
1.690440417E0,1.450929495E1,-2.336059717E1,1.745154136E1,3.256982401E1
1.700510417E0,1.538897814E1,-2.145821023E1,1.333140143E1,2.958042763E1
1.710579417E0,1.621548909E1,-1.917949299E1,9.001212546E0,2.667989627E1
1.720648417E0,1.689495543E1,-1.717704149E1,5.583602706E0,2.473190030E1
1.730717417E0,1.624775637E1,-1.511281883E1,3.047109207E0,2.239803014E1
1.740787417E0,1.418668769E1,-1.397890221E1,1.865204783E-1,1.991749494E1
1.750856417E0,1.286567421E1,-1.341906990E1,-3.036205319E0,1.883654832E1
1.760925417E0,1.253774715E1,-1.245223513E1,-5.624067192E0,1.854409327E1
1.770994417E0,1.385825427E1,-1.161751469E1,-6.662917439E0,1.927206081E1
1.781064417E0,1.755938975E1,-1.256655171E1,-6.198194187E0,2.246481697E1
1.791133417E0,2.249600214E1,-1.214341794E1,-3.654339044E0,2.582415353E1
1.801202417E0,2.930073677E1,-1.236430704E1,5.790521049E-1,3.180793243E1
1.811272042E0,3.610841841E1,-1.194965291E1,5.495952358E0,3.842938429E1
1.821342042E0,4.324045445E1,-8.403436487E0,1.018769856E1,4.521220906E1
1.831411042E0,5.215656019E1,-4.346493841E0,1.017503349E1,5.331725880E1
1.841480042E0,5.967927444E1,1.270753743E0,7.991160421E0,6.022532073E1
1.851549042E0,6.617063807E1,7.723821629E0,6.882025473E0,6.697442078E1
1.861619042E0,7.104676219E1,1.209627769E1,3.937145476E0,7.217661301E1
1.871688042E0,7.094344890E1,1.632127692E1,2.988219559E-1,7.279729608E1
1.881757042E0,7.064452053E1,1.619690196E1,-2.332152607E0,7.251501120E1
1.891826042E0,6.932700251E1,1.602938742E1,-5.129317904E0,7.134062265E1
1.901896042E0,6.274249506E1,1.389415734E1,-6.282084775E0,6.456882285E1
1.911965042E0,5.483004752E1,1.116362575E1,-6.784254180E0,5.636476519E1
1.922034042E0,4.861685230E1,8.494830807E0,-7.369780322E0,4.990064268E1
1.932103042E0,4.336666543E1,5.528507901E0,-7.123024313E0,4.429412541E1
1.942173042E0,3.837381686E1,1.022782683E0,-5.434095833E0,3.877015995E1
1.952242042E0,3.366401563E1,-3.836964546E0,-8.373610425E-1,3.389232094E1
1.962311042E0,3.007250843E1,-7.892633083E0,5.359506996E0,3.154954414E1
1.972380042E0,2.687804120E1,-1.176512765E1,9.152499311E0,3.073459892E1
1.982450042E0,2.377452157E1,-1.498923208E1,1.012187294E1,2.987234952E1
1.992519042E0,2.105636619E1,-1.769727060E1,8.704500850E0,2.885016948E1
2.002588042E0,1.840525381E1,-1.968844517E1,6.265994407E0,2.767039803E1
2.012657042E0,1.579335287E1,-2.130024186E1,4.543994660E0,2.690312594E1
2.022727042E0,1.355854237E1,-2.302705094E1,3.440402287E0,2.694281934E1
2.032796042E0,1.139099590E1,-2.402074080E1,3.553513166E0,2.682122726E1
2.042865042E0,9.964685751E0,-2.420998944E1,3.661742789E0,2.643533452E1
2.052934042E0,9.352409182E0,-2.426071053E1,3.356325173E0,2.621668460E1
2.063003042E0,9.545642703E0,-2.392802267E1,3.034159963E0,2.593984754E1
2.073073042E0,1.006863053E1,-2.365642184E1,3.343071874E0,2.592642946E1
2.083142042E0,1.084362050E1,-2.320301003E1,3.911342298E0,2.590873170E1
2.093211042E0,1.201857872E1,-2.286941234E1,3.791900055E0,2.611196587E1
2.103280042E0,1.426623438E1,-2.272554511E1,3.700153148E0,2.708628763E1
2.113350042E0,1.750214785E1,-2.214118140E1,4.176752679E0,2.853072652E1
2.123419042E0,2.158912472E1,-2.110335909E1,4.028030503E0,3.045762795E1
2.133488042E0,2.668926969E1,-2.015624581E1,3.098525528E0,3.358857279E1
2.143557042E0,3.238973660E1,-1.921543934E1,2.057210680E0,3.771684321E1
2.153627042E0,3.812153523E1,-1.845956158E1,2.060854373E0,4.240582487E1
2.163696042E0,4.336641283E1,-1.818752104E1,2.697777833E0,4.710318130E1
2.173765042E0,4.753223122E1,-1.806026224E1,2.587001747E0,5.091344277E1
2.183834042E0,4.814239519E1,-1.802202964E1,7.209947267E-1,5.141015075E1
2.193904042E0,4.505126697E1,-1.805570843E1,-1.042222921E0,4.854597297E1
2.203973042E0,4.022928808E1,-1.809995314E1,-1.940296480E0,4.415618500E1
2.214042042E0,3.544016586E1,-1.767137796E1,-1.616111934E0,3.963451492E1
2.224111042E0,3.141293116E1,-1.735339000E1,-5.923416567E-1,3.589238439E1
2.234181042E0,2.770560465E1,-1.699548310E1,4.190393941E-1,3.250573132E1
2.244250042E0,2.336506210E1,-1.668858614E1,1.770709977E0,2.876752419E1
2.254319042E0,1.887850757E1,-1.639731060E1,3.106178949E0,2.519758303E1
2.264388042E0,1.464345113E1,-1.680209229E1,3.710573471E0,2.259445334E1
2.274457042E0,1.010827115E1,-1.942650862E1,4.129067466E0,2.228487336E1
2.284527042E0,4.633579851E0,-2.335476165E1,6.043679760E0,2.456503651E1
2.294596042E0,-2.247091992E0,-2.811933726E1,9.669118940E0,2.982010079E1
2.304665042E0,-1.029769638E1,-3.448066116E1,1.369057951E1,3.850182479E1
2.314734042E0,-1.803404567E1,-4.039352467E1,1.825573700E1,4.785536095E1
2.324804042E0,-2.471020003E1,-4.564712163E1,2.182832027E1,5.630922895E1
2.334873042E0,-3.028677614E1,-4.823786385E1,2.433357619E1,6.193789831E1
2.344942042E0,-3.518338655E1,-4.816975080E1,2.692395120E1,6.544535682E1
2.355011042E0,-3.821536901E1,-4.807424940E1,2.818986169E1,6.757378327E1
2.365081042E0,-3.856554940E1,-4.661897565E1,2.714057417E1,6.631169774E1
2.375150042E0,-3.400919782E1,-4.495182688E1,2.409199965E1,6.130021797E1
2.385219042E0,-2.588334094E1,-4.279187478E1,1.804900635E1,5.316820963E1
2.395288042E0,-1.581448821E1,-3.934790686E1,1.121069466E1,4.386382890E1
2.405357042E0,-7.375931593E0,-3.565215315E1,6.464641864E0,3.697664108E1
2.415427042E0,4.684707320E-1,-3.294570156E1,4.822376212E0,3.330006049E1
2.425496042E0,8.912339546E0,-3.170154973E1,5.938898824E0,3.346174787E1
2.435565042E0,1.737085096E1,-3.293809784E1,9.515637131E0,3.843451707E1
2.445634042E0,2.501343897E1,-3.445313247E1,1.478680849E1,4.507039129E1
2.455704042E0,3.095045616E1,-3.502030069E1,2.112239061E1,5.128847417E1
2.465773042E0,3.425655843E1,-3.444381668E1,2.578894817E1,5.499961955E1
2.475842042E0,3.445033984E1,-3.280556719E1,2.773213230E1,5.506452865E1
2.485911042E0,3.286161860E1,-3.015287490E1,2.544946117E1,5.134936139E1
2.495981042E0,3.135605880E1,-2.793108030E1,2.068130472E1,4.680880297E1
2.506050042E0,3.040526645E1,-2.575821988E1,1.595003018E1,4.292283288E1
2.516119042E0,2.951336025E1,-2.482137899E1,1.249277856E1,4.053651199E1
2.526188042E0,2.787909855E1,-2.439500470E1,1.169033475E1,3.884616219E1
2.536258042E0,2.490662438E1,-2.477192090E1,1.275063726E1,3.737066702E1
2.546327042E0,2.108629691E1,-2.556951152E1,1.468877407E1,3.625178507E1
2.556396042E0,1.782852539E1,-2.651888884E1,1.681185480E1,3.610742645E1
2.566465042E0,1.521278165E1,-2.741051439E1,1.824834846E1,3.627350612E1
2.576535042E0,1.328110836E1,-2.732201561E1,1.915490545E1,3.591365727E1
2.586604042E0,1.208216953E1,-2.681728161E1,1.955114319E1,3.531844580E1
2.596673042E0,1.138419208E1,-2.585469894E1,1.879389836E1,3.393045685E1
2.606742042E0,1.100106847E1,-2.448311522E1,1.691417523E1,3.172594778E1
2.616812042E0,1.144593633E1,-2.321129436E1,1.463969488E1,2.973372346E1
2.626881042E0,1.245204802E1,-2.167481917E1,1.217528527E1,2.780447549E1
2.636950042E0,1.332510398E1,-2.019187640E1,9.423394965E0,2.596287044E1
2.647019042E0,1.414938363E1,-1.903121345E1,6.794640005E0,2.466899421E1
2.657088042E0,1.565256127E1,-1.849853094E1,4.207433897E0,2.459473157E1
2.667158042E0,1.664494369E1,-1.755765663E1,1.881851221E0,2.426657827E1
2.677227042E0,1.786175395E1,-1.619265571E1,-3.205687742E-1,2.411114094E1
2.687296042E0,1.974382999E1,-1.401098822E1,-1.607647505E0,2.426337042E1
2.697365042E0,2.336518840E1,-1.178295347E1,-1.723508914E0,2.622480705E1
2.707435042E0,2.750281385E1,-8.742329997E0,-1.451608708E0,2.889533304E1
2.717504042E0,3.157458095E1,-5.203015040E0,-3.441624355E-1,3.200224953E1
2.727573042E0,3.570988856E1,-3.281959115E0,1.021350700E0,3.587492932E1
2.737642042E0,3.890861022E1,-2.778028529E0,3.990252228E0,3.921121657E1
2.747712042E0,4.088149587E1,-1.010084577E0,8.191058013E0,4.170623942E1
2.757781042E0,4.210424222E1,2.324859960E0,1.199306030E1,4.384068523E1
2.767850042E0,4.547970883E1,8.164580652E0,1.469984636E1,4.848865615E1
2.777919042E0,5.424817472E1,1.264120545E1,1.217598694E1,5.701683254E1
2.787989042E0,6.477395811E1,1.583583640E1,6.213992779E0,6.697053882E1
2.798058042E0,7.089879956E1,1.790605479E1,1.994813434E-1,7.312527860E1
2.808126208E0,7.082005394E1,1.798078689E1,-4.553385873E0,7.320875672E1
2.818195208E0,6.998877166E1,1.489567195E1,-5.198937192E0,7.174495208E1
2.828265208E0,6.576756377E1,9.770488610E0,-4.528392534E0,6.664338850E1
2.838334208E0,5.959556570E1,5.130367479E0,-4.590663042E0,5.999188535E1
2.848403208E0,5.382185656E1,1.785836724E0,-3.765540222E0,5.398296722E1
2.858472208E0,4.890626141E1,-7.597807699E-1,-3.337611744E0,4.902590462E1
2.868542208E0,4.446739208E1,-3.812714096E0,-1.088176481E0,4.464381117E1
2.878611208E0,3.970445603E1,-6.932404498E0,3.298063517E0,4.043982300E1
2.888680208E0,3.461129030E1,-9.477432593E0,7.895669543E0,3.674377147E1
2.898749208E0,2.902854888E1,-1.172426029E1,1.110264279E1,3.321721853E1
2.908819208E0,2.377443503E1,-1.435218378E1,1.218199553E1,3.032507140E1
2.918888208E0,1.979471948E1,-1.691365950E1,1.124114813E1,2.835958759E1
2.928957208E0,1.657390002E1,-1.890795298E1,8.899962745E0,2.667234869E1
2.939026208E0,1.409976883E1,-2.040520856E1,6.664092729E0,2.568240934E1
2.949096208E0,1.223138346E1,-2.168154814E1,5.156216265E0,2.542209349E1
2.959165208E0,1.127058535E1,-2.284458039E1,4.397088337E0,2.585024822E1
2.969234208E0,1.073983827E1,-2.352313105E1,4.337888786E0,2.622020404E1
2.979303208E0,1.037452528E1,-2.412461776E1,4.552457335E0,2.665244500E1
2.989373208E0,1.104418935E1,-2.459546597E1,5.182788352E0,2.745491503E1
2.999442208E0,1.240921834E1,-2.483866804E1,5.954569362E0,2.839727145E1
3.009511208E0,1.425722616E1,-2.474865834E1,6.841108412E0,2.936946291E1
3.019580208E0,1.663856555E1,-2.466842986E1,7.388901302E0,3.065891645E1
3.029650208E0,1.894063072E1,-2.452752600E1,7.490489658E0,3.188188293E1
3.039719208E0,2.117106517E1,-2.429222001E1,7.573932348E0,3.310121455E1
3.049788208E0,2.366149255E1,-2.398331628E1,7.241590059E0,3.446021352E1
3.059857208E0,2.653034003E1,-2.297743381E1,7.042424539E0,3.579688743E1
3.069926208E0,2.975201552E1,-2.216657936E1,6.312749913E0,3.763496353E1
3.079996208E0,3.331318269E1,-2.138064575E1,5.874526243E0,4.001762377E1
3.090065208E0,3.647286366E1,-2.032601855E1,5.883382435E0,4.216670491E1
3.100134208E0,3.942840197E1,-1.952590310E1,5.435371696E0,4.433286635E1
3.110203208E0,4.205676282E1,-1.893933732E1,4.018881950E0,4.629925712E1
3.120273208E0,4.342092759E1,-1.795628705E1,2.388597534E0,4.704796059E1
3.130342208E0,4.294571736E1,-1.774182639E1,8.151559487E-1,4.647334206E1
3.140411208E0,4.014658974E1,-1.745691262E1,3.452801308E-1,4.377912384E1
3.150480208E0,3.611900888E1,-1.654387106E1,7.356164204E-1,3.973441335E1
3.160550208E0,3.193464313E1,-1.585530295E1,1.233628163E0,3.567539631E1
3.170619208E0,2.760641716E1,-1.529911112E1,2.277394602E0,3.164432960E1
3.180688208E0,2.356560757E1,-1.561814222E1,4.885421183E0,2.869026954E1
3.190757208E0,1.958664280E1,-1.627053478E1,7.221643453E0,2.646731971E1
3.200827208E0,1.431972588E1,-1.786558855E1,8.372307665E0,2.437887076E1
3.210896208E0,8.135465611E0,-2.054825484E1,1.142550148E1,2.487887984E1
3.220965208E0,9.890009791E-1,-2.479018059E1,1.662321544E1,2.986406650E1
3.231034208E0,-6.994315987E0,-2.961710856E1,2.293514908E1,3.810662198E1
3.241104208E0,-1.376973678E1,-3.367550424E1,2.915718763E1,4.662388687E1
3.251173208E0,-1.703898872E1,-3.738000070E1,3.129990448E1,5.164567368E1
3.261242208E0,-1.896237535E1,-3.915494172E1,2.863191821E1,5.208135829E1
3.271311208E0,-2.073216381E1,-3.776151515E1,2.638137403E1,5.051466656E1
3.281380208E0,-2.038649045E1,-3.681312484E1,2.559595263E1,4.925411601E1
3.291450208E0,-2.072210192E1,-3.692576092E1,2.716470913E1,5.030744229E1
3.301519208E0,-2.353595283E1,-3.674245539E1,2.949505612E1,5.266789761E1
3.311588208E0,-2.546627542E1,-3.637110808E1,3.033635585E1,5.377437283E1
3.321657208E0,-2.343384173E1,-3.498884969E1,2.914160129E1,5.121130214E1
3.331727208E0,-1.752627463E1,-3.263191658E1,2.598762018E1,4.524785835E1
3.341796208E0,-9.388769508E0,-2.991739583E1,2.122456251E1,3.786398843E1
3.351865208E0,-4.411724210E-3,-2.752550807E1,1.691844954E1,3.230924866E1
3.361934208E0,1.018567191E1,-2.561532796E1,1.328061953E1,3.059849333E1
3.372004208E0,1.922465806E1,-2.428153597E1,1.134825977E1,3.298429121E1
3.382073208E0,2.719066375E1,-2.360720466E1,1.221789978E1,3.802511515E1
3.392142208E0,3.289090146E1,-2.277579842E1,1.494176789E1,4.270602791E1
3.402211208E0,3.606961161E1,-2.250530155E1,1.780530727E1,4.609267237E1
3.412281208E0,3.702601494E1,-2.261768503E1,1.973983284E1,4.766703745E1
3.422350208E0,3.636326813E1,-2.230733120E1,2.141466017E1,4.773355177E1
3.432419208E0,3.488581707E1,-2.157976917E1,2.154114012E1,4.633278956E1
3.442488208E0,3.338235759E1,-2.062722733E1,1.991671345E1,4.400613344E1
3.452557208E0,3.116909525E1,-1.939873200E1,1.728111491E1,4.057659713E1
3.462627208E0,2.829638393E1,-1.819421727E1,1.470126840E1,3.671297016E1
3.472696208E0,2.503118644E1,-1.685435237E1,1.281442921E1,3.278473859E1
3.482765208E0,2.166244880E1,-1.611698339E1,1.240457798E1,2.971350529E1
3.492834208E0,1.819157199E1,-1.597006508E1,1.274599925E1,2.735757239E1
3.502904208E0,1.476951827E1,-1.666143752E1,1.397093713E1,2.628553318E1
3.512973208E0,1.176423303E1,-1.793903309E1,1.677164116E1,2.723038806E1
3.523042208E0,9.663765814E0,-1.872151217E1,1.945200482E1,2.867514392E1
3.533111208E0,8.377254410E0,-1.911088761E1,2.065102784E1,2.935761175E1
3.543181208E0,7.624683841E0,-1.915035866E1,2.041993185E1,2.901457663E1
3.553250208E0,7.423173587E0,-1.890063811E1,2.046230779E1,2.882782800E1
3.563319208E0,7.877717421E0,-1.829837139E1,2.010680643E1,2.830499059E1
3.573388208E0,8.878949021E0,-1.729984705E1,1.832336239E1,2.671827189E1
3.583458208E0,1.018963165E1,-1.548475203E1,1.582899282E1,2.437546209E1
3.593527208E0,1.100722208E1,-1.342368686E1,1.323603802E1,2.182995670E1
3.603596208E0,1.039531681E1,-1.140268214E1,1.148938816E1,1.923771847E1
3.613665208E0,9.235713961E0,-1.003263741E1,1.049425170E1,1.720702021E1
3.623735208E0,8.642119246E0,-9.088498027E0,9.008931456E0,1.544175726E1
3.633804208E0,9.684707032E0,-8.049213333E0,6.913740771E0,1.436604319E1
3.643873208E0,1.245656909E1,-7.813652987E0,4.797146938E0,1.546712336E1
3.653942208E0,1.666995691E1,-7.711150712E0,3.111405190E0,1.862874529E1
3.664011208E0,2.218382865E1,-6.834273017E0,1.623601633E0,2.326941390E1
3.674081208E0,2.789230391E1,-4.819919796E0,-1.220980489E-1,2.830595612E1
3.684150208E0,3.494788643E1,-2.383302296E0,-8.072787260E-1,3.503835891E1
3.694219208E0,4.387391373E1,-1.723798935E0,-9.715860705E-1,4.391851282E1
3.704288208E0,5.165105670E1,-3.564916990E0,-6.836991388E-1,5.177844857E1
3.714358208E0,5.358320128E1,-3.972429330E0,1.707170624E0,5.375736309E1
3.724427208E0,5.168727669E1,-1.594377541E0,6.680989428E0,5.214165543E1
3.734496208E0,5.079277900E1,3.629039311E0,1.103488877E1,5.210417541E1
3.744565208E0,5.508699288E1,1.015948691E1,1.269287027E1,5.743605936E1
3.754635208E0,6.348347294E1,1.280782653E1,8.861519641E0,6.536603313E1
3.764704208E0,6.975739032E1,1.390092257E1,2.878724014E0,7.118719130E1
3.774773208E0,6.997671237E1,1.436472372E1,-1.673056798E0,7.145547341E1
3.784842208E0,6.882732752E1,1.497124136E1,-4.174391574E0,7.056036158E1
3.794912208E0,6.274564788E1,9.273526150E0,-4.337941119E0,6.357540679E1
3.804981208E0,5.168426888E1,1.036767936E1,-4.678219249E0,5.292105593E1
3.815049833E0,4.292820846E1,6.948013056E0,-3.090664532E0,4.359653855E1
3.825118833E0,3.430082887E1,3.475157552E0,-3.659795666E-1,3.447836310E1
3.835188833E0,2.759824509E1,5.729978979E-3,2.214857461E0,2.768697814E1
3.845257833E0,2.240270864E1,-3.849358304E0,4.167045132E0,2.310980699E1
3.855326833E0,1.837524473E1,-8.162313101E0,6.337903465E0,2.108179296E1
3.865395833E0,1.635376171E1,-1.260655368E1,1.009353850E1,2.298369503E1
3.875465833E0,1.508636602E1,-1.662864867E1,1.325107004E1,2.607108079E1
3.885534833E0,1.392643748E1,-1.971541253E1,1.362331080E1,2.771710211E1
3.895603833E0,1.280531808E1,-2.162125867E1,1.263742230E1,2.812755660E1
3.905672833E0,1.166332061E1,-2.244518749E1,1.127320140E1,2.769304171E1
3.915742833E0,1.177800205E1,-2.331852762E1,1.004609186E1,2.798926623E1
3.925811833E0,1.291667713E1,-2.388128705E1,9.995554372E0,2.893211928E1
3.935880833E0,1.476643913E1,-2.398239710E1,1.115453683E1,3.029235526E1
3.945949833E0,1.830776903E1,-2.398969208E1,1.188125569E1,3.243214409E1
3.956019833E0,2.236148343E1,-2.381004925E1,1.109729493E1,3.449788894E1
3.966088833E0,2.696251008E1,-2.406930310E1,1.028718542E1,3.757837789E1
3.976157833E0,3.100310215E1,-2.433724824E1,9.589347131E0,4.056414148E1
3.986226833E0,3.394972696E1,-2.495867629E1,9.959336718E0,4.329789684E1
3.996296833E0,3.548231961E1,-2.585034627E1,1.130764968E1,4.533319257E1
4.006365833E0,3.629064337E1,-2.697162940E1,1.298266413E1,4.704284384E1
4.016434833E0,3.703512257E1,-2.772897012E1,1.532452545E1,4.873743087E1
4.026503833E0,3.727229031E1,-2.786132770E1,1.627194981E1,4.929760193E1
4.036573833E0,3.624485500E1,-2.780753331E1,1.611013279E1,4.844052850E1
4.046642833E0,3.446619047E1,-2.730777647E1,1.579327451E1,4.672323256E1
4.056711833E0,3.186034607E1,-2.639953314E1,1.442197497E1,4.381792286E1
4.066780833E0,2.859550409E1,-2.475859627E1,1.273506261E1,3.991081010E1
4.076850833E0,2.517615061E1,-2.306567063E1,1.154252532E1,3.604294122E1
4.086919833E0,2.237228909E1,-2.189631638E1,1.158066671E1,3.337783443E1
4.096988833E0,1.929851891E1,-2.148735744E1,1.266194903E1,3.153512827E1
4.107057833E0,1.546580588E1,-2.108749910E1,1.419969658E1,2.975743861E1
4.117126833E0,1.042372609E1,-2.081160642E1,1.463767174E1,2.749615357E1
4.127196833E0,3.587114775E0,-2.055378865E1,1.372201064E1,2.497236865E1
4.137265833E0,-4.012758746E0,-2.127500527E1,1.151580121E1,2.452227069E1
4.147334833E0,-1.134667985E1,-2.269113775E1,1.065489693E1,2.751657146E1
4.157403833E0,-1.608374431E1,-2.556710948E1,1.248419835E1,3.268362169E1
4.167473833E0,-1.795048895E1,-3.020597931E1,1.538347708E1,3.835717152E1
4.177542833E0,-2.000212256E1,-3.347571892E1,1.863781980E1,4.322125624E1
4.187611833E0,-2.198888248E1,-3.592535846E1,1.961768216E1,4.646499528E1
4.197680833E0,-2.406229345E1,-3.568138923E1,1.876213511E1,4.694862317E1
4.207750833E0,-2.480360813E1,-3.478342063E1,1.681649281E1,4.591186946E1
4.217819833E0,-2.569508165E1,-3.332061100E1,1.626256619E1,4.511065725E1
4.227888833E0,-2.705838336E1,-3.189207774E1,1.700809788E1,4.515015090E1
4.237957833E0,-2.769697884E1,-3.087150706E1,1.703791868E1,4.483818972E1
4.248026833E0,-2.670015487E1,-3.012235945E1,1.623924750E1,4.340469984E1
4.258096833E0,-2.384176922E1,-2.889621938E1,1.523780189E1,4.044270095E1
4.268165833E0,-1.912117871E1,-2.739924329E1,1.455383203E1,3.644382026E1
4.278234833E0,-1.282101902E1,-2.618472749E1,1.510783466E1,3.283694794E1
4.288303833E0,-5.920217555E0,-2.532058853E1,1.546445166E1,3.025442852E1
4.298373833E0,5.749210471E-1,-2.504698094E1,1.587376845E1,2.965903426E1
4.308442833E0,6.427455912E0,-2.463612049E1,1.702652597E1,3.062928678E1
4.318511833E0,1.223308734E1,-2.450583517E1,1.926722462E1,3.348746523E1
4.328580833E0,1.750141344E1,-2.457689287E1,2.146685008E1,3.702902629E1
4.338650833E0,2.157242507E1,-2.461332102E1,2.221726537E1,3.955745158E1
4.348719833E0,2.527250805E1,-2.466526067E1,2.190802718E1,4.155762748E1
4.358788833E0,2.881950859E1,-2.400097955E1,2.075490714E1,4.286463886E1
4.368857833E0,3.150179948E1,-2.313020050E1,1.853257693E1,4.325304560E1
4.378927833E0,3.309743915E1,-2.192928298E1,1.610944867E1,4.284679995E1
4.388996833E0,3.338263124E1,-2.068761036E1,1.467059858E1,4.192378506E1
4.399065833E0,3.169354840E1,-1.919611546E1,1.400945391E1,3.961359183E1
4.409134833E0,2.798243757E1,-1.794494579E1,1.407487256E1,3.609902948E1
4.419204833E0,2.330934515E1,-1.728191247E1,1.503522510E1,3.268100464E1
4.429273833E0,1.842255806E1,-1.736885238E1,1.567178574E1,2.977704732E1
4.439342833E0,1.386390034E1,-1.749086389E1,1.649260852E1,2.775147182E1
4.449411833E0,1.016361855E1,-1.760065004E1,1.713736813E1,2.658517275E1
4.459481833E0,7.491784231E0,-1.744619935E1,1.706294711E1,2.552725733E1
4.469550833E0,5.823024552E0,-1.732948892E1,1.664392394E1,2.472324828E1
4.479619833E0,4.683968816E0,-1.739895852E1,1.624200505E1,2.425831918E1
4.489688833E0,3.822038943E0,-1.703778069E1,1.577528965E1,2.353197221E1
4.499757833E0,3.109311887E0,-1.631217631E1,1.462936051E1,2.213081800E1
4.509827833E0,2.701826445E0,-1.563953952E1,1.309985286E1,2.057914496E1
4.519896833E0,2.694365398E0,-1.479310360E1,1.140896322E1,1.887484995E1
4.529965833E0,3.163059493E0,-1.394364584E1,9.479527066E0,1.715493043E1
4.540034833E0,3.897362775E0,-1.313133543E1,7.916846988E0,1.582080507E1
4.550104833E0,4.325676584E0,-1.243543842E1,6.593181206E0,1.472486486E1
4.560173833E0,4.847540581E0,-1.222084210E1,6.149026705E0,1.451406768E1
4.570242833E0,5.368396518E0,-1.235353062E1,6.575220898E0,1.498876012E1
4.580311833E0,6.616992238E0,-1.273125841E1,7.460161319E0,1.617168928E1
4.590381833E0,9.078506305E0,-1.299854166E1,9.894592838E0,1.868915005E1
4.600450833E0,1.345070801E1,-1.267974795E1,1.251967575E1,2.232576617E1
4.610519833E0,2.000648692E1,-1.211422631E1,1.329808633E1,2.690451817E1
4.620588833E0,2.788564042E1,-1.153004853E1,1.323712209E1,3.295106010E1
4.630658833E0,3.584732620E1,-1.242709444E1,1.224643185E1,3.986776348E1
4.640727833E0,4.222555557E1,-1.570285902E1,1.267110694E1,4.679887045E1
4.650796833E0,4.673605562E1,-1.882370629E1,1.652627094E1,5.302554521E1
4.660865833E0,4.889545575E1,-1.933956754E1,2.289342335E1,5.734887356E1
4.670935833E0,5.178202965E1,-1.706822831E1,2.991563465E1,6.219041895E1
4.681004833E0,5.825856943E1,-1.434281303E1,3.332171261E1,6.863026832E1
4.691073833E0,6.616107671E1,-1.062197009E1,3.221623568E1,7.435052227E1
4.701142833E0,7.163308823E1,-6.325365865E0,2.702427071E1,7.682200720E1
4.711212833E0,7.178490066E1,-2.381216594E0,2.041697082E1,7.466990593E1
4.721281833E0,7.094584392E1,4.718708879E-1,1.447969752E1,7.240992385E1
4.731350833E0,6.404307019E1,2.011601229E0,1.025421882E1,6.488998676E1
4.741419833E0,5.243281540E1,1.698061831E0,8.065639915E0,5.307671893E1
4.751489833E0,4.219811108E1,-2.614886534E-1,7.632321475E0,4.288357828E1
4.761558833E0,3.394868616E1,-3.110193647E0,7.191854228E0,3.484120210E1
4.771627833E0,2.746875733E1,-6.368306648E0,6.642291386E0,2.896908686E1
4.781696833E0,2.236745227E1,-9.956581510E0,6.489918208E0,2.532894539E1
4.791766833E0,1.881434022E1,-1.424784138E1,7.438959900E0,2.474507035E1
4.801835833E0,1.616817693E1,-1.849151778E1,8.421796160E0,2.596676387E1
4.811905458E0,1.350812066E1,-2.223516018E1,8.998670762E0,2.752903463E1
4.821974458E0,1.048063587E1,-2.524089800E1,9.040946715E0,2.878689594E1
4.832043458E0,7.706570004E0,-2.744543864E1,8.731405059E0,2.981410333E1
4.842113458E0,5.999174262E0,-2.846734248E1,9.277948984E0,3.053620830E1
4.852182458E0,5.739931524E0,-2.888950677E1,1.023073172E1,3.118041512E1
4.862251458E0,7.044550586E0,-2.858444584E1,1.150253972E1,3.160703493E1
4.872320458E0,9.486746038E0,-2.772683238E1,1.298398911E1,3.205245010E1
4.882390458E0,1.280583030E1,-2.689136817E1,1.400061526E1,3.291127769E1
4.892459458E0,1.665581016E1,-2.661766235E1,1.438377511E1,3.453706628E1
4.902528458E0,1.996769415E1,-2.609613749E1,1.462835245E1,3.596812335E1
4.912597458E0,2.208133397E1,-2.520464994E1,1.435257203E1,3.645347737E1
4.922667458E0,2.346007702E1,-2.432770559E1,1.437752912E1,3.672772545E1
4.932736458E0,2.472596179E1,-2.310645145E1,1.404149314E1,3.663938884E1
4.942805458E0,2.622490253E1,-2.144869331E1,1.320561378E1,3.636179579E1
4.952874458E0,2.865364881E1,-1.983394728E1,1.182259759E1,3.679933245E1
4.962944458E0,3.124875772E1,-1.817915017E1,1.078979688E1,3.772778918E1
4.973013458E0,3.396395908E1,-1.704160477E1,1.026698095E1,3.936213546E1
4.983082458E0,3.607576756E1,-1.598245182E1,9.571941724E0,4.060199305E1
4.993151458E0,3.719336927E1,-1.490000941E1,8.959937636E0,4.105651569E1
5.003221458E0,3.659885245E1,-1.412677244E1,8.884942417E0,4.022417062E1
5.013290458E0,3.458464804E1,-1.366720234E1,9.525005540E0,3.838770676E1
5.023359458E0,3.180423151E1,-1.340048862E1,1.040950917E1,3.604774776E1
5.033428458E0,2.861386201E1,-1.276949570E1,1.102114196E1,3.321563923E1
5.043498458E0,2.539930609E1,-1.195071009E1,1.085980208E1,3.009783253E1
5.053567458E0,2.175234389E1,-1.132198355E1,9.899209800E0,2.644515326E1
5.063636458E0,1.782320910E1,-1.084612427E1,8.863821105E0,2.266875645E1
5.073705458E0,1.358869061E1,-1.114307161E1,7.674419088E0,1.917595541E1
5.083775458E0,8.931149454E0,-1.287622025E1,7.283978280E0,1.728059079E1
5.093844458E0,3.916946855E0,-1.636603735E1,7.991147557E0,1.862922678E1
5.103913458E0,-1.910524505E0,-2.113250863E1,1.034346020E1,2.360551193E1
5.113982458E0,-7.298897451E0,-2.756253498E1,1.309635505E1,3.137645222E1
5.124051458E0,-1.287266631E1,-3.257645691E1,1.677523135E1,3.883734632E1
5.134121458E0,-1.680936038E1,-3.507229647E1,2.157275017E1,4.447475830E1
5.144190458E0,-1.850793209E1,-3.718570942E1,2.380611992E1,4.787537865E1
5.154259458E0,-2.096308906E1,-3.726284823E1,2.382898721E1,4.894682413E1
5.164328458E0,-2.343842829E1,-3.679715258E1,2.337633086E1,4.949589077E1
5.174398458E0,-2.586252485E1,-3.653220823E1,2.309571362E1,5.036749366E1
5.184467458E0,-2.750582400E1,-3.577541948E1,2.281955664E1,5.056859854E1
5.194536458E0,-2.699971942E1,-3.495498729E1,2.116210723E1,4.897622656E1
5.204605458E0,-2.397829703E1,-3.348010667E1,1.840070117E1,4.510501163E1
5.214675458E0,-1.852669931E1,-3.168009746E1,1.528570462E1,3.975575340E1
5.224744458E0,-1.183810441E1,-2.953141177E1,1.204318264E1,3.401886602E1
5.234813458E0,-4.844334553E0,-2.729270001E1,9.360528626E0,2.925711105E1
5.244882458E0,1.829577405E0,-2.565273845E1,8.192093555E0,2.699112336E1
5.254951458E0,7.762485173E0,-2.470453759E1,8.783716589E0,2.734454298E1
5.265021458E0,1.329168831E1,-2.422206745E1,1.056696183E1,2.958104481E1
5.275090458E0,1.816770600E1,-2.378230304E1,1.372145515E1,3.292327157E1
5.285159458E0,2.223998063E1,-2.346200660E1,1.732137533E1,3.667577586E1
5.295228458E0,2.512307193E1,-2.324398732E1,1.985878158E1,3.957048010E1
5.305298458E0,2.681606071E1,-2.299606070E1,2.123369119E1,4.121637492E1
5.315367458E0,2.761521371E1,-2.228712322E1,2.111479156E1,4.129346574E1
5.325436458E0,2.785977468E1,-2.115266515E1,1.965086628E1,4.012179998E1
5.335505458E0,2.794792496E1,-1.988632430E1,1.723720583E1,3.838845749E1
5.345575458E0,2.802042809E1,-1.884475744E1,1.515707991E1,3.701359676E1
5.355644458E0,2.724609536E1,-1.780852324E1,1.359545467E1,3.527505634E1
5.365713458E0,2.524989336E1,-1.706109237E1,1.282343509E1,3.306173733E1
5.375782458E0,2.229475968E1,-1.671111079E1,1.299682141E1,3.074467270E1
5.385852458E0,1.894807540E1,-1.654065977E1,1.367763144E1,2.863041370E1
5.395921458E0,1.575971150E1,-1.667144795E1,1.412273787E1,2.693988508E1
5.405990458E0,1.277544465E1,-1.668557716E1,1.408689911E1,2.529943078E1
5.416059458E0,1.014234170E1,-1.699790970E1,1.381572981E1,2.413856705E1
5.426129458E0,7.848121739E0,-1.722988511E1,1.390576173E1,2.349110821E1
5.436198458E0,6.014059519E0,-1.726876325E1,1.402761770E1,2.304676017E1
5.446267458E0,4.810156993E0,-1.733266045E1,1.446924387E1,2.308501130E1
5.456336458E0,3.936900478E0,-1.720312124E1,1.486822161E1,2.307619075E1
5.466406458E0,3.345401405E0,-1.676624769E1,1.450133222E1,2.241846132E1
5.476475458E0,3.155408996E0,-1.606781883E1,1.352669141E1,2.123918050E1
5.486544458E0,3.266431249E0,-1.526928798E1,1.196773250E1,1.967351900E1
5.496613458E0,3.242560576E0,-1.405770162E1,1.022140308E1,1.768078773E1
5.506683458E0,3.133325817E0,-1.298368388E1,8.369531407E0,1.576206947E1
5.516752458E0,3.204239094E0,-1.229242722E1,6.349741738E0,1.420176522E1
5.526821458E0,3.984174632E0,-1.193332515E1,4.464692967E0,1.334958351E1
5.536890458E0,5.905587822E0,-1.200734388E1,2.704996220E0,1.365171341E1
5.546959458E0,8.636794186E0,-1.182796534E1,1.079217669E0,1.468535627E1
5.557029458E0,1.139925567E1,-1.132761208E1,4.794073641E-2,1.607047366E1
5.567098458E0,1.487539848E1,-1.084246158E1,-2.763482922E-1,1.840958504E1
5.577167458E0,1.851953881E1,-9.942412537E0,-1.014381550E-1,2.101987570E1
5.587236458E0,2.154977295E1,-8.470476569E0,9.905440593E-1,2.317591131E1
5.597306458E0,2.473459461E1,-8.251957934E0,3.351093085E0,2.628925266E1
5.607375458E0,2.905521920E1,-8.803575488E0,6.389775285E0,3.102479545E1
5.617444458E0,3.509036203E1,-8.255093211E0,8.475426822E0,3.703124263E1
5.627513458E0,4.233240525E1,-5.850738015E0,9.933785555E0,4.387418107E1
5.637583458E0,5.085875898E1,-1.810742354E-1,1.107535033E1,5.205102821E1
5.647652458E0,6.178219514E1,4.837613178E0,1.027133128E1,6.281673649E1
5.657721458E0,7.015106230E1,7.939920101E0,8.025330380E0,7.105364031E1
5.667790458E0,7.069391780E1,1.081913587E1,6.157839628E0,7.178163208E1
5.677860458E0,7.043354363E1,1.348411667E1,3.924072272E0,7.181994022E1
5.687929458E0,7.016470269E1,1.515887617E1,2.589385657E0,7.183023004E1
5.697998458E0,6.597613629E1,1.438008903E1,1.667148771E0,6.754566534E1
5.708067458E0,5.682079991E1,1.180590029E1,1.179360739E-1,5.803444230E1
5.718137458E0,4.793763037E1,9.308231129E0,-1.342120764E0,4.885141616E1
5.728206458E0,3.958130899E1,7.022370343E0,-2.951185634E0,4.030760727E1
5.738275458E0,3.288006773E1,4.566849672E0,-4.627584701E0,3.351670494E1
5.748344458E0,2.749205966E1,2.033926775E0,-5.959397993E0,2.820398246E1
5.758414458E0,2.305943048E1,-7.088475747E-1,-6.318387798E0,2.391990433E1
5.768483458E0,2.000869717E1,-3.873081627E0,-4.918231080E0,2.096515492E1
5.778552458E0,1.827652970E1,-7.640431563E0,-1.773113037E0,1.988848064E1
5.788621458E0,1.705513172E1,-1.139437793E1,1.813364246E0,2.059120337E1
5.798691458E0,1.613361638E1,-1.466948527E1,4.708659854E0,2.230826872E1
5.808763458E0,1.549239668E1,-1.763679753E1,6.326838194E0,2.431254539E1
5.818832458E0,1.506747016E1,-2.044789791E1,6.679924650E0,2.626340761E1
5.828901458E0,1.471329963E1,-2.256834857E1,7.043046098E0,2.784629313E1
5.838971458E0,1.446365159E1,-2.394073920E1,7.394402947E0,2.893152961E1
5.849040458E0,1.445180396E1,-2.521509073E1,7.179997829E0,2.993673007E1
5.859109458E0,1.460867423E1,-2.618515316E1,6.632325976E0,3.070933664E1
5.869178458E0,1.478402755E1,-2.649465096E1,6.269383453E0,3.098127127E1
5.879248458E0,1.569010156E1,-2.634476812E1,6.615757306E0,3.136868405E1
5.889317458E0,1.719299386E1,-2.592622442E1,7.064538124E0,3.190103211E1
5.899386458E0,1.886085482E1,-2.556760533E1,7.333458588E0,3.260696094E1
5.909455458E0,2.063199165E1,-2.487871445E1,8.022034889E0,3.330138969E1
5.919525458E0,2.281245345E1,-2.413075032E1,8.963699734E0,3.439548017E1
5.929594458E0,2.456362203E1,-2.340097804E1,1.023888859E1,3.543743981E1
5.939663458E0,2.622765073E1,-2.272040892E1,1.217664884E1,3.677468451E1
5.949732458E0,2.846832481E1,-2.189085274E1,1.375850545E1,3.845713748E1
5.959801458E0,3.042400093E1,-2.046324802E1,1.359237319E1,3.910392514E1
5.969871458E0,3.234268991E1,-1.900884083E1,1.210103966E1,3.941853347E1
5.979940458E0,3.384317432E1,-1.702759016E1,1.020760365E1,3.923639187E1
5.990009458E0,3.442344732E1,-1.474906705E1,7.904195952E0,3.827512270E1
6.000078458E0,3.385134873E1,-1.279028840E1,5.873960817E0,3.666072426E1
6.010148458E0,3.250910634E1,-1.087868391E1,5.324708462E0,3.469207804E1
6.020217458E0,3.117269714E1,-9.256612494E0,4.777833585E0,3.286715101E1
6.030286458E0,3.008016828E1,-7.921930557E0,4.472645180E0,3.142575476E1
6.040355458E0,2.858174443E1,-7.263304279E0,4.315060380E0,2.980421865E1
6.050425458E0,2.637991456E1,-7.130399991E0,5.001020637E0,2.778043743E1
6.060494458E0,2.363308210E1,-7.894713523E0,5.793872674E0,2.558159556E1
6.070563458E0,1.979812490E1,-9.617365819E0,6.386015525E0,2.291812970E1
6.080632458E0,1.435974540E1,-1.229598583E1,7.046502972E0,2.017539986E1
6.090702458E0,7.766741946E0,-1.657483558E1,8.124943546E0,2.002653646E1
6.100771458E0,8.475498158E-1,-2.241235655E1,9.459699157E0,2.434169211E1
6.110840458E0,-6.835041926E0,-2.921856234E1,1.140011404E1,3.209991875E1
6.120909458E0,-1.382575661E1,-3.528900130E1,1.635499196E1,4.127894040E1
6.130979458E0,-1.681499359E1,-4.053417126E1,2.322812031E1,4.965187431E1
6.141048458E0,-1.855442564E1,-4.446604956E1,2.727016250E1,5.536386942E1
6.151117458E0,-2.228162684E1,-4.576910391E1,2.820294075E1,5.819525439E1
6.161186458E0,-2.728581199E1,-4.510217985E1,2.824908697E1,5.980579468E1
6.171255458E0,-3.080082592E1,-4.321018458E1,2.621068444E1,5.918454957E1
6.181325458E0,-3.085794620E1,-4.090624128E1,2.290041428E1,5.612452578E1
6.191394458E0,-2.750064571E1,-3.863562477E1,1.943697981E1,5.125225068E1
6.201463458E0,-2.222004162E1,-3.637866970E1,1.616967031E1,4.559162310E1
6.211532458E0,-1.632349418E1,-3.396672131E1,1.302616975E1,3.987324563E1
6.221602458E0,-9.915121243E0,-3.172633256E1,1.016545458E1,3.475926170E1
6.231671458E0,-2.812936991E0,-2.988709790E1,7.847309561E0,3.102791489E1
6.241740458E0,4.853631041E0,-2.824949394E1,6.800388987E0,2.945907216E1
6.251809458E0,1.314330936E1,-2.689039520E1,7.540954052E0,3.086593467E1
6.261879458E0,2.169338057E1,-2.624656530E1,1.024597659E1,3.555931646E1
6.271948458E0,2.985284491E1,-2.626564593E1,1.323070068E1,4.190618028E1
6.282017458E0,3.584665026E1,-2.563083478E1,1.609091065E1,4.691310512E1
6.292086458E0,3.900238085E1,-2.411318762E1,1.833647184E1,4.938479249E1
6.302156458E0,4.018143446E1,-2.255010993E1,1.842346087E1,4.962337195E1
6.312225458E0,3.929342016E1,-2.084664995E1,1.752865444E1,4.781013918E1
6.322294458E0,3.640418461E1,-1.897916855E1,1.633922553E1,4.418646611E1
6.332363458E0,3.314320881E1,-1.743934407E1,1.531279360E1,4.046090285E1
6.342433458E0,2.972569603E1,-1.653262102E1,1.383579160E1,3.672020822E1
6.352502458E0,2.575299949E1,-1.604889256E1,1.274224767E1,3.291122621E1
6.362571458E0,2.189899440E1,-1.572409494E1,1.239892139E1,2.967400157E1
6.372640458E0,1.828287977E1,-1.579175541E1,1.218861458E1,2.705929706E1
6.382709458E0,1.487000384E1,-1.592583206E1,1.225728662E1,2.499980433E1
6.392779458E0,1.211294460E1,-1.613285156E1,1.255310545E1,2.376074037E1
6.402848458E0,9.785426491E0,-1.631192956E1,1.256625584E1,2.279790348E1
6.412917458E0,7.892459421E0,-1.663152784E1,1.290465058E1,2.248174016E1
6.422986458E0,6.756411493E0,-1.684165572E1,1.363674186E1,2.269914519E1
6.433056458E0,6.165290735E0,-1.709893438E1,1.393795299E1,2.290525923E1
6.443125458E0,5.408711316E0,-1.715668616E1,1.384078513E1,2.269743093E1
6.453194458E0,4.608608147E0,-1.682354105E1,1.365491968E1,2.215237310E1
6.463263458E0,3.905985664E0,-1.625228211E1,1.309715963E1,2.123508861E1
6.473333458E0,3.565897568E0,-1.588370404E1,1.197345342E1,2.020819800E1
6.483402458E0,3.297191697E0,-1.550555291E1,1.058290835E1,1.906020969E1
6.493471458E0,3.094690340E0,-1.492301119E1,8.970660260E0,1.768462939E1
6.503540458E0,3.292561871E0,-1.424464179E1,7.219395783E0,1.630553461E1
6.513610458E0,4.463479670E0,-1.380117609E1,5.577683569E0,1.554045257E1
6.523679458E0,5.308394145E0,-1.337532571E1,4.519559146E0,1.508326228E1
6.533748458E0,5.363826334E0,-1.328791802E1,3.921754435E0,1.485663341E1
6.543817458E0,5.478856269E0,-1.357923098E1,3.517180907E0,1.505934732E1
6.553887458E0,6.188517630E0,-1.438687414E1,3.135991270E0,1.597229912E1
6.563956458E0,7.923931475E0,-1.483247758E1,3.555410587E0,1.718813619E1
6.574025458E0,1.284846117E1,-1.523902279E1,4.011853304E0,2.033238149E1
6.584094458E0,1.975066422E1,-1.611098999E1,3.105205972E0,2.567674122E1
6.594164458E0,2.726423576E1,-1.766970449E1,2.273518483E0,3.256878712E1
6.604233458E0,3.507528323E1,-1.943075253E1,2.863710119E0,4.019988150E1
6.614302458E0,4.200393206E1,-1.820170639E1,5.343876804E0,4.608892973E1
6.624371458E0,4.841478656E1,-1.352967700E1,8.207839522E0,5.093537422E1
6.634441458E0,5.583318180E1,-6.969144309E0,1.153292536E1,5.743623882E1
6.644510458E0,6.470918499E1,5.765120745E-1,1.222551753E1,6.585646717E1
6.654579458E0,7.057413408E1,7.144052070E0,1.030337636E1,7.167918419E1
6.664648458E0,7.077571333E1,1.197015793E1,9.068519261E0,7.235139474E1
6.674718458E0,7.088515450E1,1.434347610E1,1.137064291E1,7.321019024E1
6.684787458E0,7.090572734E1,1.409671074E1,1.819697014E1,7.454843490E1
6.694856458E0,6.886272891E1,1.225191888E1,2.671769418E1,7.487336062E1
6.704925458E0,6.107734370E1,9.493208381E0,3.308689545E1,7.010924025E1
6.714995458E0,5.295151021E1,6.308393152E0,3.424811973E1,6.337658844E1
6.725064458E0,4.530235577E1,2.418100246E0,3.071569046E1,5.478689886E1
6.735133458E0,3.851421085E1,-1.987883168E0,2.438812370E1,4.562977859E1
6.745202458E0,3.236669623E1,-6.328662525E0,1.760266031E1,3.738326691E1
6.755271458E0,2.698650471E1,-1.017418096E1,1.190824527E1,3.120243100E1
6.765341458E0,2.285801027E1,-1.336014283E1,7.409695755E0,2.749337450E1
6.775410458E0,2.045882051E1,-1.677090909E1,4.088895925E0,2.676837310E1
6.785479458E0,1.870291100E1,-1.968084379E1,2.464364585E0,2.726183385E1
6.795548458E0,1.742751399E1,-2.260863588E1,1.770909367E0,2.860078286E1
6.805618458E0,1.647677075E1,-2.540531703E1,1.771420414E0,3.033235959E1
6.815684208E0,1.600133599E1,-2.770807451E1,2.346768892E0,3.208251036E1
6.825753208E0,1.560165424E1,-2.920381800E1,3.627787423E0,3.330818882E1
6.835822208E0,1.563394140E1,-3.036914236E1,4.750082699E0,3.448576832E1
6.845892208E0,1.611356277E1,-3.129592604E1,5.615451905E0,3.564568966E1
6.855961208E0,1.649011995E1,-3.168171597E1,6.215770333E0,3.625315136E1
6.866030208E0,1.681529180E1,-3.198975665E1,7.334621015E0,3.687675737E1
6.876099208E0,1.701361766E1,-3.208613045E1,8.678038691E0,3.734021035E1
6.886169208E0,1.721948642E1,-3.168969157E1,9.731496452E0,3.735571292E1
6.896238208E0,1.738942873E1,-3.086404133E1,1.134440879E1,3.719780759E1
6.906307208E0,1.746197747E1,-2.955294590E1,1.310814421E1,3.674398880E1
6.916376208E0,1.787678480E1,-2.811570964E1,1.415160206E1,3.619862434E1
6.926446208E0,1.859232963E1,-2.622921310E1,1.471248336E1,3.535680285E1
6.936515208E0,2.068549367E1,-2.363173256E1,1.484130220E1,3.473633088E1
6.946584208E0,2.478729206E1,-2.059149851E1,1.309177200E1,3.478238279E1
6.956653208E0,2.895007223E1,-1.707842819E1,9.805537405E0,3.501325400E1
6.966723208E0,3.287761892E1,-1.406812838E1,7.084903391E0,3.645608204E1
6.976792208E0,3.672401795E1,-1.220044584E1,5.015200135E0,3.902123275E1
6.986861208E0,3.916177361E1,-1.087586087E1,3.842581966E0,4.082516746E1
6.996930208E0,4.026146647E1,-1.001980278E1,2.901832210E0,4.159089757E1
7.006999208E0,4.036484057E1,-9.784839431E0,2.157185496E0,4.158986519E1
7.017069208E0,3.906563603E1,-9.814611114E0,1.820539949E0,4.032077474E1
7.027138208E0,3.628480551E1,-1.001786852E1,1.807332258E0,3.768569027E1
7.037207208E0,3.221505454E1,-1.054983416E1,2.369236819E0,3.398120103E1
7.047276208E0,2.775992762E1,-1.157388394E1,3.314845026E0,3.025816532E1
7.057346208E0,2.288450985E1,-1.432052812E1,3.537436831E0,2.722667398E1
7.067415208E0,1.593710783E1,-1.693924809E1,4.272511361E0,2.364706927E1
7.077484208E0,7.687726182E0,-2.087058611E1,3.818807187E0,2.256691797E1
7.087553208E0,-2.276321054E-2,-2.704307769E1,3.153604546E0,2.722634369E1
7.097623208E0,-9.154588521E0,-3.256603483E1,4.601966879E0,3.413987719E1
7.107692208E0,-1.731776409E1,-3.711129541E1,8.792579799E0,4.188630635E1
7.117761208E0,-2.046712121E1,-4.260985797E1,1.230460580E1,4.884574056E1
7.127830208E0,-2.204994612E1,-4.611540409E1,1.438323600E1,5.310092368E1
7.137900208E0,-2.402991625E1,-4.710797128E1,1.533423768E1,5.506120847E1
7.147969208E0,-2.718680693E1,-4.708864740E1,1.626422213E1,5.675374972E1
7.158038208E0,-2.974822653E1,-4.676530106E1,1.794015108E1,5.825632485E1
7.168107208E0,-3.014844037E1,-4.555695757E1,1.919356256E1,5.790300237E1
7.178176208E0,-2.810367607E1,-4.350146012E1,1.927488798E1,5.526042841E1
7.188246208E0,-2.378427238E1,-4.068881374E1,1.816864389E1,5.051109578E1
7.198315208E0,-1.719789850E1,-3.756654793E1,1.558349396E1,4.415720236E1
7.208384208E0,-1.027891161E1,-3.390780242E1,1.269863212E1,3.763841584E1
7.218453208E0,-2.761606039E0,-3.058402519E1,9.965580375E0,3.228500979E1
7.228523208E0,4.378359413E0,-2.821871419E1,8.059827198E0,2.967198471E1
7.238592208E0,9.946338358E0,-2.686385819E1,8.095654258E0,2.976803893E1
7.248661208E0,1.491045839E1,-2.610780619E1,1.112445291E1,3.205764754E1
7.258730208E0,1.947547554E1,-2.593815508E1,1.561276512E1,3.599778425E1
7.268800208E0,2.307545887E1,-2.599580863E1,1.905061334E1,3.963817272E1
7.278869208E0,2.621342796E1,-2.602446466E1,2.117328945E1,4.257610541E1
7.288938208E0,2.774652814E1,-2.527562812E1,2.231642713E1,4.366634998E1
7.299007208E0,2.757781726E1,-2.372204164E1,2.223125892E1,4.263214911E1
7.309077208E0,2.614634636E1,-2.195883013E1,2.051367441E1,3.983255561E1
7.319146208E0,2.416501266E1,-2.065927475E1,1.788172921E1,3.647615262E1
7.329215208E0,2.177624029E1,-1.974607766E1,1.512586279E1,3.305909784E1
7.339284208E0,1.929446095E1,-1.921719350E1,1.308854785E1,3.021401718E1
7.349353208E0,1.656727162E1,-1.900050972E1,1.209395167E1,2.795992714E1
7.359423208E0,1.358397542E1,-1.920780521E1,1.208354012E1,2.644761068E1
7.369492208E0,1.048796477E1,-1.973458204E1,1.248993681E1,2.560175101E1
7.379561208E0,8.063168882E0,-2.020873042E1,1.321436707E1,2.545637395E1
7.389630208E0,6.573619931E0,-2.080543176E1,1.383610735E1,2.583633752E1
7.399700208E0,5.495634854E0,-2.090353400E1,1.456319459E1,2.606235547E1
7.409769208E0,4.990183407E0,-2.087329220E1,1.449896994E1,2.590012330E1
7.419838208E0,4.901644283E0,-2.078846314E1,1.428598160E1,2.569582819E1
7.429907208E0,4.771772361E0,-2.027813920E1,1.389208275E1,2.503922331E1
7.439977208E0,4.595806253E0,-1.942010358E1,1.293964850E1,2.378437221E1
7.450046208E0,4.400071878E0,-1.831622528E1,1.190235829E1,2.228252396E1
7.460115208E0,4.251664867E0,-1.726746634E1,1.042142229E1,2.061184345E1
7.470184208E0,4.258117855E0,-1.636011529E1,8.728772058E0,1.902567743E1
7.480254208E0,4.389785457E0,-1.563170659E1,7.052343755E0,1.770186486E1
7.490323208E0,4.425511944E0,-1.480121252E1,5.459006141E0,1.638480381E1
7.500392208E0,4.332185705E0,-1.432313715E1,4.122899531E0,1.552154603E1
7.510461208E0,4.587656989E0,-1.501616786E1,3.487758594E0,1.608404035E1
7.520530208E0,4.930413169E0,-1.557045701E1,4.422552084E0,1.692061087E1
7.530600208E0,5.618075550E0,-1.561765573E1,6.756052474E0,1.791977088E1
7.540669208E0,7.724484118E0,-1.567396208E1,9.379387650E0,1.983213692E1
7.550738208E0,1.195815009E1,-1.524735507E1,1.117536111E1,2.236890444E1
7.560807208E0,1.758971341E1,-1.359636800E1,1.220312620E1,2.536090554E1
7.570877208E0,2.386825477E1,-1.175490321E1,1.273808913E1,2.949797027E1
7.580946208E0,3.094040129E1,-1.081822019E1,1.279136078E1,3.518467324E1
7.591015208E0,3.784285460E1,-9.584455351E0,1.363818729E1,4.135146407E1
7.601084208E0,4.461246384E1,-7.438059429E0,1.601563360E1,4.798017484E1
7.611154208E0,5.105719477E1,-4.613164297E0,1.986310618E1,5.497873597E1
7.621223208E0,5.836944667E1,-1.317579415E0,2.496287927E1,6.349703664E1
7.631292208E0,6.663876148E1,1.751085552E0,2.912576001E1,7.274682625E1
7.641361208E0,7.104855845E1,5.659879634E0,3.073923135E1,7.761979283E1
7.651431208E0,7.102031406E1,9.690191721E0,2.991852317E1,7.767176355E1
7.661500208E0,7.100319809E1,1.261414219E1,2.669164600E1,7.689612922E1
7.671569208E0,7.069585908E1,1.358875259E1,2.288186224E1,7.553898535E1
7.681638208E0,6.601983604E1,1.226887230E1,1.985393540E1,7.002372976E1
7.691708208E0,5.636947906E1,9.382983688E0,1.690647094E1,5.959351737E1
7.701777208E0,4.674474692E1,5.421762886E0,1.340063480E1,4.892896781E1
7.711846208E0,3.829846964E1,5.225621545E-1,1.014811291E1,3.962360463E1
7.721915208E0,3.143591774E1,-4.669011054E0,8.121790727E0,3.280213518E1
7.731985208E0,2.554090226E1,-8.993777227E0,6.832480261E0,2.792684199E1
7.742054208E0,2.064419829E1,-1.297981069E1,5.659017169E0,2.503363505E1
7.752123208E0,1.704705554E1,-1.659947224E1,4.907599087E0,2.429463130E1
7.762192208E0,1.441444844E1,-1.965972131E1,4.933729709E0,2.487212605E1
7.772262208E0,1.230006953E1,-2.230232598E1,5.562600676E0,2.606967550E1
7.782331208E0,1.071785274E1,-2.441294864E1,6.450617902E0,2.743127594E1
7.792400208E0,9.677522559E0,-2.568045191E1,7.753350652E0,2.851761736E1
7.802469208E0,9.256924151E0,-2.675802359E1,8.776958377E0,2.964316902E1
7.812541667E0,9.169582536E0,-2.700317863E1,1.015726146E1,3.027247695E1
7.822611667E0,9.701128938E0,-2.671487114E1,1.167337782E1,3.072562436E1
7.832680667E0,1.104189958E1,-2.642087781E1,1.278755775E1,3.136093053E1
7.842749667E0,1.234306294E1,-2.576911675E1,1.310676894E1,3.143542545E1
7.852818667E0,1.396708148E1,-2.486189785E1,1.331801364E1,3.147320793E1
7.862888667E0,1.684752048E1,-2.376656467E1,1.309109490E1,3.193846127E1
7.872957667E0,1.957677504E1,-2.234333835E1,1.207874540E1,3.206822384E1
7.883026667E0,2.201175678E1,-2.068067322E1,1.169956984E1,3.238962204E1
7.893095667E0,2.493640308E1,-1.908762505E1,1.130398699E1,3.337576591E1
7.903165667E0,2.862637973E1,-1.735999619E1,9.860977196E0,3.490097356E1
7.913234667E0,3.205886840E1,-1.589301983E1,8.906262535E0,3.687384757E1
7.923303667E0,3.563290412E1,-1.542673361E1,9.217393464E0,3.990799805E1
7.933372667E0,3.790486081E1,-1.526181641E1,9.615395308E0,4.197805784E1
7.943442667E0,3.838798584E1,-1.514605206E1,9.078891637E0,4.225478225E1
7.953511667E0,3.712744308E1,-1.468757188E1,8.769273382E0,4.087874696E1
7.963580667E0,3.503945149E1,-1.403630666E1,8.375769217E0,3.866438381E1
7.973649667E0,3.291071650E1,-1.320419057E1,7.490237643E0,3.624320032E1
7.983719667E0,3.078730247E1,-1.215796582E1,6.426867682E0,3.371911557E1
7.993788667E0,2.840972636E1,-1.153253360E1,6.105352097E0,3.126319253E1
8.003857667E0,2.503757628E1,-1.189138892E1,6.500823265E0,2.847009061E1
8.013926667E0,2.039173423E1,-1.248684246E1,7.046832755E0,2.492793436E1
8.023996667E0,1.467550557E1,-1.318522571E1,6.956944678E0,2.091936232E1
8.034065667E0,8.303459625E0,-1.384119092E1,5.393020313E0,1.701795158E1
8.044134667E0,3.160153427E0,-1.540035332E1,3.932032671E0,1.620550317E1
8.054203667E0,-7.085082901E-1,-1.998328751E1,3.864537091E0,2.036586386E1
8.064272667E0,-6.149934778E0,-2.547681678E1,7.175932260E0,2.717322018E1
8.074342667E0,-1.267271024E1,-3.008993781E1,1.328684447E1,3.524971175E1
8.084411667E0,-1.764573207E1,-3.509525498E1,1.911376327E1,4.368506299E1
8.094480667E0,-2.235719391E1,-3.815752602E1,2.241600287E1,4.958142894E1
8.104549667E0,-2.580502100E1,-3.932988808E1,2.288561147E1,5.231147500E1
8.114619667E0,-2.781185323E1,-3.927356770E1,2.189644034E1,5.287122468E1
8.124688667E0,-2.895914945E1,-3.837518979E1,2.073524646E1,5.235683312E1
8.134757667E0,-2.982137519E1,-3.711496513E1,2.007497887E1,5.167049285E1
8.144826667E0,-3.048014590E1,-3.576343970E1,1.899084193E1,5.068249195E1
8.154895667E0,-2.943309902E1,-3.438458907E1,1.739306687E1,4.848841159E1
8.164965667E0,-2.607681829E1,-3.292743720E1,1.548490522E1,4.476604586E1
8.175034667E0,-2.050609642E1,-3.146598178E1,1.347606622E1,3.990253576E1
8.185103667E0,-1.308666037E1,-2.983887240E1,1.141162721E1,3.452309693E1
8.195172667E0,-4.812685913E0,-2.793403431E1,1.005472469E1,3.007606536E1
8.205242667E0,3.653917460E0,-2.682758909E1,1.085813913E1,2.917138725E1
8.215311667E0,1.156229359E1,-2.622728352E1,1.432218756E1,3.204188026E1
8.225380667E0,1.779700890E1,-2.577262508E1,1.839592984E1,3.632316016E1
8.235449667E0,2.241635838E1,-2.536577348E1,2.201842729E1,4.038225758E1
8.245519667E0,2.553665251E1,-2.438818217E1,2.342192043E1,4.237322748E1
8.255588667E0,2.783612386E1,-2.338778906E1,2.257639901E1,4.279640477E1
8.265657667E0,2.940365946E1,-2.219576866E1,2.120155957E1,4.250568744E1
8.275726667E0,2.987659630E1,-2.082456151E1,1.958411213E1,4.134985872E1
8.285796667E0,2.936674014E1,-1.974974738E1,1.723386590E1,3.936323261E1
8.295865667E0,2.777656880E1,-1.881829996E1,1.495325767E1,3.673235770E1
8.305934667E0,2.489529247E1,-1.803946019E1,1.399917100E1,3.378127439E1
8.316003667E0,2.069656362E1,-1.779128214E1,1.367646901E1,3.052741834E1
8.326072667E0,1.597794245E1,-1.809139983E1,1.377989924E1,2.779350672E1
8.336142667E0,1.136149318E1,-1.876717541E1,1.412123396E1,2.609022133E1
8.346211667E0,7.530222073E0,-1.938822807E1,1.418446458E1,2.517551722E1
8.356280667E0,4.625854509E0,-1.998797698E1,1.401031462E1,2.484364444E1
8.366349667E0,2.364264346E0,-2.077510108E1,1.427987594E1,2.532013878E1
8.376419667E0,9.302253520E-1,-2.107181219E1,1.506258657E1,2.591848958E1
8.386488667E0,8.102831715E-1,-2.120097017E1,1.552331792E1,2.628899188E1
8.396557667E0,1.256909291E0,-2.083698333E1,1.497214300E1,2.568900079E1
8.406626667E0,1.913242291E0,-2.007226576E1,1.369536370E1,2.437456329E1
8.416696667E0,2.871125557E0,-1.912791821E1,1.194595046E1,2.273381511E1
8.426765667E0,3.883127144E0,-1.804706040E1,9.696352347E0,2.085172209E1
8.436834667E0,4.778217747E0,-1.699860902E1,7.517488591E0,1.919105803E1
8.446903667E0,4.929775237E0,-1.599926023E1,5.762104166E0,1.770539059E1
8.456973667E0,4.226563355E0,-1.520672043E1,4.409522148E0,1.638755838E1
8.467042667E0,3.429956236E0,-1.478426144E1,4.048572941E0,1.570763919E1
8.477111667E0,3.027716331E0,-1.462312036E1,3.888109264E0,1.543114088E1
8.487180667E0,2.937193247E0,-1.432110583E1,3.409807608E0,1.501159432E1
8.497250667E0,3.607792869E0,-1.414436789E1,3.163240757E0,1.493604380E1
8.507319667E0,5.332739612E0,-1.439871943E1,3.168911679E0,1.567811322E1
8.517388667E0,7.696961274E0,-1.462295313E1,3.812990669E0,1.695915296E1
8.527457667E0,1.087718936E1,-1.411675382E1,6.027484726E0,1.881293595E1
8.537526667E0,1.587962386E1,-1.275216338E1,8.514875647E0,2.207449279E1
8.547596667E0,2.228045038E1,-1.202817985E1,1.027598099E1,2.732565397E1
8.557665667E0,2.978109957E1,-1.316205203E1,1.122387078E1,3.444022039E1
8.567734667E0,3.549271362E1,-1.397635399E1,1.345622779E1,4.044924297E1
8.577803667E0,3.905753413E1,-1.344323060E1,1.780747308E1,4.498130187E1
8.587873667E0,4.265692104E1,-1.182964817E1,2.289705096E1,4.983802194E1
8.597942667E0,4.801022005E1,-1.005887387E1,2.840610108E1,5.668393733E1
8.608011667E0,5.497347270E1,-8.343468028E0,3.248756988E1,6.439827914E1
8.618080667E0,6.115179980E1,-5.308077811E0,3.441030278E1,7.036893666E1
8.628150667E0,6.600792644E1,-1.925856489E0,3.300320074E1,7.382388864E1
8.638219667E0,6.838530141E1,1.906221539E-1,2.947046273E1,7.446538766E1
8.648288667E0,6.687438556E1,6.264414489E-1,2.551088032E1,7.157779605E1
8.658357667E0,6.161538577E1,-6.584362435E-1,2.239291572E1,6.556166545E1
8.668427667E0,5.409305510E1,-2.669666759E0,2.148847075E1,5.826611456E1
8.678496667E0,4.588436422E1,-4.707619050E0,2.130133879E1,5.080633417E1
8.688565667E0,3.800247189E1,-6.335134224E0,2.043075855E1,4.360891756E1
8.698634667E0,3.160453272E1,-8.123810356E0,1.771564957E1,3.713067496E1
8.708704667E0,2.677665048E1,-1.019762128E1,1.395666759E1,3.187113209E1
8.718773667E0,2.284277945E1,-1.283724388E1,1.074471835E1,2.832024674E1
8.728842667E0,1.959440440E1,-1.563144230E1,8.660891147E0,2.651968528E1
8.738911667E0,1.691231581E1,-1.871539130E1,6.846558017E0,2.613747605E1
8.748981667E0,1.426188289E1,-2.177242323E1,5.617002001E0,2.662687418E1
8.759050667E0,1.180344445E1,-2.451804415E1,4.657167226E0,2.760697370E1
8.769119667E0,9.831255798E0,-2.700220799E1,3.914043420E0,2.900159587E1
8.779188667E0,8.071063793E0,-2.869737662E1,3.718711918E0,3.004180943E1
8.789257667E0,6.688406036E0,-2.962212080E1,4.038298214E0,3.063515412E1
8.799327667E0,6.132114803E0,-2.955415042E1,4.632197569E0,3.053699221E1
8.809396667E0,6.153658285E0,-2.915585446E1,5.695191554E0,3.033754385E1
8.819461833E0,6.439851424E0,-2.869485063E1,7.019706352E0,3.023478818E1
8.829530833E0,7.566471301E0,-2.833602337E1,8.281673484E0,3.047569235E1
8.839600833E0,8.926662301E0,-2.786341398E1,9.657259033E0,3.081100113E1
8.849669833E0,1.070699679E1,-2.712895224E1,1.057170977E1,3.102226422E1
8.859738833E0,1.278521769E1,-2.620292636E1,1.110886072E1,3.120035140E1
8.869807833E0,1.496080174E1,-2.499597685E1,1.158385344E1,3.134980236E1
8.879877833E0,1.751282603E1,-2.369557480E1,1.186952618E1,3.176578336E1
8.889946833E0,2.064872170E1,-2.209815758E1,1.208335768E1,3.256847877E1
8.900015833E0,2.375490299E1,-2.047798300E1,1.206096285E1,3.360223249E1
8.910084833E0,2.661907036E1,-1.926476411E1,1.164749570E1,3.486215999E1
8.920154833E0,2.917627762E1,-1.836414906E1,1.109535366E1,3.621607404E1
8.930223833E0,3.102775869E1,-1.755115453E1,1.046579564E1,3.715235811E1
8.940292833E0,3.233956281E1,-1.670547173E1,1.045959642E1,3.787246052E1
8.950361833E0,3.269158625E1,-1.586026606E1,9.731042123E0,3.761623362E1
8.960430833E0,3.181800755E1,-1.506546807E1,8.725050305E0,3.626955246E1
8.970500833E0,3.024174556E1,-1.422450631E1,8.295096352E0,3.443411648E1
8.980569833E0,2.846139002E1,-1.351081154E1,8.053063724E0,3.251837305E1
8.990638833E0,2.596348054E1,-1.320349592E1,7.999688001E0,3.020645021E1
9.000707833E0,2.231743752E1,-1.276878935E1,8.567440946E0,2.710186421E1
9.010777833E0,1.785526354E1,-1.203287399E1,8.210012348E0,2.304354129E1
9.020846833E0,1.306697747E1,-1.277319114E1,7.480317256E0,1.974475774E1
9.030915833E0,7.542790663E0,-1.487398696E1,6.742285205E0,1.798854049E1
9.040984833E0,1.057995200E0,-1.728322692E1,7.266831905E0,1.877860838E1
9.051054833E0,-5.644806681E0,-2.043471361E1,8.238009986E0,2.274436570E1
9.061123833E0,-1.189482591E1,-2.568129391E1,8.579949310E0,2.957416559E1
9.071192833E0,-1.570291749E1,-3.195341269E1,9.259826124E0,3.678785914E1
9.081261833E0,-1.851580712E1,-3.455239714E1,1.037357453E1,4.055014562E1
9.091330833E0,-1.945050559E1,-3.596558496E1,1.362501702E1,4.309856794E1
9.101400833E0,-2.001055191E1,-3.731393652E1,1.615626615E1,4.531861629E1
9.111469833E0,-2.188045405E1,-3.652853384E1,1.713996429E1,4.590061470E1
9.121538833E0,-2.265165502E1,-3.576487344E1,1.611295232E1,4.529736062E1
9.131607833E0,-2.231656278E1,-3.457650404E1,1.431387165E1,4.357121214E1
9.141677833E0,-2.192135883E1,-3.326001045E1,1.247849030E1,4.174310708E1
9.151746833E0,-2.107047903E1,-3.162211179E1,1.104173820E1,3.957073443E1
9.161815833E0,-1.801471243E1,-2.988749083E1,9.789668062E0,3.624402810E1
9.171884833E0,-1.354232921E1,-2.779345088E1,9.092471795E0,3.222644311E1
9.181954833E0,-8.183146146E0,-2.591156662E1,9.224119517E0,2.869595000E1
9.192023833E0,-2.783824874E0,-2.453489115E1,9.931657169E0,2.661481502E1
9.202092833E0,1.934289928E0,-2.335048616E1,1.113582107E1,2.594211234E1
9.212161833E0,5.694809146E0,-2.204597235E1,1.264735204E1,2.604632914E1
9.222231833E0,8.738130527E0,-2.081883825E1,1.409686861E1,2.661767563E1
9.232300833E0,1.135431631E1,-1.977762924E1,1.522950118E1,2.742285221E1
9.242369833E0,1.376717921E1,-1.896150762E1,1.562430168E1,2.816367869E1
9.252438833E0,1.588676097E1,-1.856094528E1,1.529606355E1,2.882477101E1
9.262507833E0,1.788059017E1,-1.819774198E1,1.499633644E1,2.959330033E1
9.272577833E0,1.949087594E1,-1.804664525E1,1.472246572E1,3.036983119E1
9.282646833E0,2.042641758E1,-1.812355016E1,1.501703442E1,3.116428931E1
9.292715833E0,2.120006736E1,-1.837443782E1,1.540358215E1,3.200520526E1
9.302784833E0,2.149949625E1,-1.903085794E1,1.533744546E1,3.255209865E1
9.312854833E0,2.083850361E1,-1.925208150E1,1.572549008E1,3.243727660E1
9.322923833E0,1.913579207E1,-1.959767884E1,1.592923163E1,3.168576927E1
9.332992833E0,1.628298935E1,-2.009583939E1,1.618286046E1,3.051005532E1
9.343061833E0,1.287548350E1,-2.033909760E1,1.700420013E1,2.947201704E1
9.353131833E0,9.678034775E0,-2.064881292E1,1.759981740E1,2.880610012E1
9.363200833E0,6.997127329E0,-2.084615878E1,1.788383654E1,2.834349549E1
9.373269833E0,5.114211622E0,-2.063084793E1,1.785503667E1,2.775949173E1
9.383338833E0,4.200864258E0,-2.030915284E1,1.684589144E1,2.671877632E1
9.393408833E0,3.636804414E0,-1.973298692E1,1.478915790E1,2.492661851E1
9.403477833E0,3.137977277E0,-1.874934023E1,1.283751402E1,2.293875382E1
9.413546833E0,2.786197674E0,-1.813562700E1,1.096183132E1,2.137347913E1
9.423615833E0,2.360226259E0,-1.774834837E1,8.933770761E0,2.000966761E1
9.433684833E0,1.860858840E0,-1.749766420E1,7.334088333E0,1.906357521E1
9.443754833E0,1.071315742E0,-1.714828371E1,6.107347752E0,1.823488547E1
9.453823833E0,3.039639974E-1,-1.674120056E1,5.463490371E0,1.761277710E1
9.463892833E0,-8.781582355E-2,-1.640295200E1,5.403331293E0,1.727022104E1
9.473961833E0,-1.682004207E-1,-1.602119781E1,4.915249000E0,1.675907943E1
9.484031833E0,6.920121253E-2,-1.579044914E1,4.122514784E0,1.631987135E1
9.494100833E0,4.285763490E-1,-1.550202236E1,3.518906420E0,1.590217210E1
9.504169833E0,1.561620562E0,-1.550355667E1,3.340749068E0,1.593610782E1
9.514238833E0,4.019284823E0,-1.590167137E1,3.478186995E0,1.676650195E1
9.524308833E0,7.060018226E0,-1.673731099E1,4.659739124E0,1.875352247E1
9.534377833E0,1.024203322E1,-1.730742036E1,6.742554762E0,2.121103696E1
9.544446833E0,1.465526134E1,-1.719894633E1,9.261486733E0,2.442039263E1
9.554515833E0,2.036543112E1,-1.742283270E1,1.204273591E1,2.938253516E1
9.564585833E0,2.748231352E1,-1.850145805E1,1.436874660E1,3.611152704E1
9.574654833E0,3.585747930E1,-1.977571369E1,1.631716165E1,4.408046549E1
9.584723833E0,4.390431925E1,-1.918790363E1,2.031030357E1,5.204107345E1
9.594792833E0,5.105811161E1,-1.657634416E1,2.660383485E1,5.991218554E1
9.604862833E0,5.754906361E1,-1.275899176E1,3.312525786E1,6.761633901E1
9.614931833E0,6.275074197E1,-6.783554268E0,3.614253340E1,7.273207647E1
9.625000833E0,6.718645848E1,1.409885901E0,3.462218951E1,7.559566117E1
9.635069833E0,7.068394479E1,8.728940458E0,3.062651808E1,7.752675707E1
9.645139833E0,7.086718250E1,1.393107081E1,2.661289804E1,7.697063486E1
9.655208833E0,6.830113893E1,1.635478380E1,2.320691363E1,7.396678560E1
9.665277833E0,6.156218079E1,1.678021318E1,2.031553566E1,6.696415942E1
9.675346833E0,5.327358888E1,1.589781220E1,1.805078975E1,5.845208906E1
9.685415833E0,4.526549024E1,1.332383513E1,1.627021669E1,4.991201399E1
9.695485833E0,3.798864206E1,9.450614923E0,1.467351517E1,4.180625665E1
9.705554833E0,3.186899995E1,4.388182150E0,1.371986471E1,3.497318956E1
9.715623833E0,2.734861576E1,-1.291201018E0,1.334795957E1,3.045951426E1
9.725692833E0,2.365757257E1,-6.622144219E0,1.272573514E1,2.766727072E1
9.735762833E0,2.052598163E1,-1.145992638E1,1.151847572E1,2.617863857E1
9.745831833E0,1.819746599E1,-1.573119462E1,9.514968209E0,2.586798934E1
9.755900833E0,1.599181204E1,-1.893427597E1,7.193100854E0,2.580669601E1
9.765969833E0,1.386271920E1,-2.163052300E1,5.924402992E0,2.636575544E1
9.776039833E0,1.158270271E1,-2.413212558E1,5.942247525E0,2.741949658E1
9.786108833E0,9.959672348E0,-2.599041749E1,7.814842896E0,2.890966351E1
9.796177833E0,9.038978543E0,-2.692704087E1,1.045584719E1,3.026703493E1
9.806246833E0,8.673513531E0,-2.707911057E1,1.234612805E1,3.099895070E1
9.816317042E0,9.671354331E0,-2.673904353E1,1.364173187E1,3.153741257E1
9.826386042E0,1.166815860E1,-2.649607301E1,1.412614445E1,3.221390642E1
9.836455042E0,1.401905270E1,-2.627823850E1,1.389986773E1,3.286770421E1
9.846524042E0,1.663369365E1,-2.562780592E1,1.359062253E1,3.343903739E1
9.856594042E0,1.944566877E1,-2.478212312E1,1.307715981E1,3.410718061E1
9.866663042E0,2.237104012E1,-2.377904731E1,1.275005604E1,3.504954288E1
9.876732042E0,2.519199189E1,-2.237217214E1,1.320381986E1,3.618689543E1
9.886801042E0,2.765982095E1,-2.107531584E1,1.341470320E1,3.727182441E1
9.896870042E0,2.986329505E1,-2.021228318E1,1.358714928E1,3.853522296E1
9.906940042E0,3.170262327E1,-1.937858016E1,1.419098657E1,3.977398385E1
9.917009042E0,3.304821962E1,-1.899894033E1,1.429371981E1,4.071185306E1
9.927078042E0,3.403227795E1,-1.830064128E1,1.436476582E1,4.122445768E1
9.937147042E0,3.463112405E1,-1.755764260E1,1.422412975E1,4.135107537E1
9.947217042E0,3.447643713E1,-1.698988966E1,1.342099480E1,4.071122903E1
9.957286042E0,3.380097613E1,-1.619490455E1,1.311862476E1,3.970993876E1
9.967355042E0,3.294076183E1,-1.571595678E1,1.225149320E1,3.849914510E1
9.977424042E0,3.120925627E1,-1.509913283E1,1.122970513E1,3.644321290E1
9.987494042E0,2.858293258E1,-1.496244481E1,1.067609894E1,3.398290567E1
9.997563042E0,2.514056914E1,-1.532143111E1,1.049077261E1,3.125461210E1